timestamp,acc_x,acc_y,acc_z,gyro_x,gyro_y,gyro_z,angle_x,angle_y,angle_z
1758179744.6909766,-0.556640625,-0.0048828125,0.83203125,0.0,2.25830078125,2.0751953125,-0.24169921875,33.662109375,-165.1025390625
1758179744.7043133,-0.556640625,-0.0048828125,0.83203125,0.0,2.25830078125,2.0751953125,-0.2252197265625,33.68408203125,-165.0750732421875
1758179744.7148032,-0.556640625,0.00830078125,0.82666015625,1.3427734375,2.3193359375,1.77001953125,-0.208740234375,33.7005615234375,-165.0531005859375
1758179744.7239072,-0.556640625,0.00830078125,0.82666015625,1.3427734375,2.3193359375,1.77001953125,-0.1812744140625,33.7225341796875,-165.0311279296875
1758179744.7326996,-0.55908203125,0.00927734375,0.830078125,-0.48828125,2.3193359375,1.708984375,-0.164794921875,33.7445068359375,-165.0091552734375
1758179744.739714,-0.55908203125,0.00927734375,0.830078125,-0.48828125,2.3193359375,1.708984375,-0.1593017578125,33.7664794921875,-164.9871826171875
1758179744.7474108,-0.56005859375,0.0087890625,0.8369140625,-1.5869140625,2.685546875,1.64794921875,-0.1593017578125,33.7884521484375,-164.9652099609375
1758179744.7573292,-0.56005859375,0.0087890625,0.8369140625,-1.5869140625,2.685546875,1.64794921875,-0.164794921875,33.81591796875,-164.94873046875
1758179744.7674086,-0.55615234375,-0.00634765625,0.82421875,-0.42724609375,2.86865234375,1.52587890625,-0.1593017578125,33.837890625,-164.9267578125
1758179744.7773468,-0.55615234375,-0.00634765625,0.82421875,-0.42724609375,2.86865234375,1.52587890625,-0.15380859375,33.8653564453125,-164.90478515625
1758179744.7873533,-0.55810546875,-0.00537109375,0.83544921875,-0.54931640625,2.86865234375,1.220703125,-0.1483154296875,33.892822265625,-164.8883056640625
1758179744.797366,-0.55810546875,-0.00537109375,0.83544921875,-0.54931640625,2.86865234375,1.220703125,-0.1483154296875,33.9202880859375,-164.871826171875
1758179744.8073487,-0.5615234375,0.00439453125,0.82666015625,0.0,2.86865234375,1.0986328125,-0.142822265625,33.94775390625,-164.86083984375
1758179744.81709,-0.5615234375,0.00439453125,0.82666015625,0.0,2.86865234375,1.0986328125,-0.1318359375,33.9752197265625,-164.8443603515625
1758179744.8271506,-0.56298828125,0.0029296875,0.82080078125,-0.6103515625,2.685546875,1.15966796875,-0.1263427734375,34.002685546875,-164.827880859375
1758179744.8371255,-0.56298828125,0.0029296875,0.82080078125,-0.6103515625,2.685546875,1.15966796875,-0.1263427734375,34.0301513671875,-164.8114013671875
1758179744.8471403,-0.56787109375,0.0,0.822265625,-1.03759765625,2.44140625,1.0986328125,-0.1263427734375,34.0521240234375,-164.8004150390625
1758179744.8571973,-0.56787109375,0.0,0.822265625,-1.03759765625,2.44140625,1.0986328125,-0.1263427734375,34.0740966796875,-164.783935546875
1758179744.8673067,-0.5712890625,-0.00146484375,0.8193359375,-0.18310546875,2.25830078125,0.91552734375,-0.1263427734375,34.1015625,-164.7674560546875
1758179744.8771896,-0.5712890625,-0.00146484375,0.8193359375,-0.18310546875,2.25830078125,0.91552734375,-0.120849609375,34.12353515625,-164.7564697265625
1758179744.8875003,-0.5654296875,0.00048828125,0.81787109375,0.0,1.953125,0.732421875,-0.1153564453125,34.1455078125,-164.7454833984375
1758179744.8971937,-0.5654296875,0.00048828125,0.81787109375,0.0,1.953125,0.732421875,-0.10986328125,34.1619873046875,-164.7344970703125
1758179744.9072125,-0.5625,0.00390625,0.82373046875,-0.244140625,1.52587890625,0.54931640625,-0.1043701171875,34.1839599609375,-164.7235107421875
1758179744.9172168,-0.5625,0.00390625,0.82373046875,-0.244140625,1.52587890625,0.54931640625,-0.1043701171875,34.1949462890625,-164.718017578125
1758179744.927738,-0.55517578125,0.00244140625,0.830078125,-0.42724609375,1.15966796875,0.3662109375,-0.1043701171875,34.21142578125,-164.7125244140625
1758179744.9372516,-0.55517578125,0.00244140625,0.830078125,-0.42724609375,1.15966796875,0.3662109375,-0.1043701171875,34.222412109375,-164.7015380859375
1758179744.94724,-0.55712890625,0.00244140625,0.830078125,-0.732421875,0.9765625,0.42724609375,-0.1043701171875,34.2333984375,-164.696044921875
1758179744.957236,-0.55712890625,0.00244140625,0.830078125,-0.732421875,0.9765625,0.42724609375,-0.10986328125,34.2388916015625,-164.6905517578125
1758179744.9673202,-0.5693359375,-0.00439453125,0.82177734375,-0.54931640625,0.8544921875,0.67138671875,-0.10986328125,34.2498779296875,-164.6795654296875
1758179744.9772656,-0.5693359375,-0.00439453125,0.82177734375,-0.54931640625,0.8544921875,0.67138671875,-0.10986328125,34.25537109375,-164.674072265625
1758179744.9872625,-0.5673828125,-0.0068359375,0.818359375,0.0,0.79345703125,0.6103515625,-0.1043701171875,34.266357421875,-164.6630859375
1758179744.9972744,-0.5673828125,-0.0068359375,0.818359375,0.0,0.79345703125,0.6103515625,-0.098876953125,34.2718505859375,-164.6575927734375
1758179745.0072887,-0.5673828125,-0.0068359375,0.818359375,0.79345703125,0.54931640625,0.3662109375,-0.087890625,34.27734375,-164.652099609375
1758179745.0173066,-0.5576171875,-0.00048828125,0.8271484375,0.79345703125,0.54931640625,0.3662109375,-0.076904296875,34.2828369140625,-164.6466064453125
1758179745.0273163,-0.55859375,0.01171875,0.83251953125,0.732421875,0.48828125,0.06103515625,-0.0714111328125,34.288330078125,-164.6466064453125
1758179745.0373213,-0.55859375,0.01171875,0.83251953125,0.732421875,0.48828125,0.06103515625,-0.0604248046875,34.2938232421875,-164.6466064453125
1758179745.0473242,-0.5654296875,0.0107421875,0.822265625,-0.1220703125,0.54931640625,0.06103515625,-0.0604248046875,34.29931640625,-164.64111328125
1758179745.0573318,-0.5654296875,0.0107421875,0.822265625,-0.1220703125,0.54931640625,0.06103515625,-0.0604248046875,34.3048095703125,-164.64111328125
1758179745.0673943,-0.5712890625,-0.00048828125,0.8232421875,-1.0986328125,0.67138671875,0.3662109375,-0.06591796875,34.310302734375,-164.6356201171875
1758179745.0773678,-0.5712890625,-0.00048828125,0.8232421875,-1.0986328125,0.67138671875,0.3662109375,-0.076904296875,34.3157958984375,-164.630126953125
1758179745.0873632,-0.56640625,-0.0087890625,0.82275390625,-0.732421875,0.79345703125,0.79345703125,-0.076904296875,34.3267822265625,-164.619140625
1758179745.0973816,-0.56640625,-0.0087890625,0.82275390625,-0.732421875,0.79345703125,0.79345703125,-0.076904296875,34.332275390625,-164.608154296875
1758179745.1073794,-0.56640625,-0.0107421875,0.826171875,0.06103515625,0.79345703125,1.03759765625,-0.0714111328125,34.34326171875,-164.59716796875
1758179745.1174037,-0.56640625,-0.0107421875,0.826171875,0.06103515625,0.79345703125,1.03759765625,-0.0604248046875,34.3487548828125,-164.5806884765625
1758179745.1273992,-0.56396484375,-0.001953125,0.8203125,0.42724609375,0.67138671875,0.9765625,-0.0494384765625,34.3597412109375,-164.5697021484375
1758179745.1374185,-0.56396484375,-0.001953125,0.8203125,0.42724609375,0.67138671875,0.9765625,-0.0384521484375,34.365234375,-164.5587158203125
1758179745.1474214,-0.55517578125,0.00732421875,0.82958984375,0.48828125,0.48828125,0.79345703125,-0.032958984375,34.3707275390625,-164.5477294921875
1758179745.1574461,-0.55517578125,0.00732421875,0.82958984375,0.48828125,0.48828125,0.79345703125,-0.02197265625,34.376220703125,-164.5367431640625
1758179745.1675043,-0.55517578125,0.0126953125,0.837890625,-0.1220703125,0.48828125,0.67138671875,-0.0164794921875,34.376220703125,-164.53125
1758179745.177605,-0.55517578125,0.0126953125,0.837890625,-0.1220703125,0.48828125,0.67138671875,-0.010986328125,34.3817138671875,-164.520263671875
1758179745.1877265,-0.55859375,0.00341796875,0.82373046875,-0.1220703125,0.48828125,0.6103515625,-0.0054931640625,34.38720703125,-164.5147705078125
1758179745.1975026,-0.55859375,0.00341796875,0.82373046875,-0.1220703125,0.48828125,0.6103515625,-0.0054931640625,34.38720703125,-164.5037841796875
1758179745.207509,-0.5595703125,-0.00390625,0.82763671875,-0.54931640625,0.3662109375,0.42724609375,-0.0054931640625,34.3927001953125,-164.498291015625
1758179745.2179058,-0.5595703125,-0.00390625,0.82763671875,-0.54931640625,0.3662109375,0.42724609375,-0.0054931640625,34.3927001953125,-164.4927978515625
1758179745.2275686,-0.5615234375,-0.0009765625,0.83203125,0.0,0.48828125,0.244140625,-0.0054931640625,34.398193359375,-164.4927978515625
1758179745.2379396,-0.5615234375,-0.0009765625,0.83203125,0.0,0.48828125,0.244140625,-0.0054931640625,34.398193359375,-164.4873046875
1758179745.2475722,-0.56201171875,0.001953125,0.82080078125,1.3427734375,0.42724609375,0.0,0.0054931640625,34.4036865234375,-164.4873046875
1758179745.2578897,-0.56201171875,0.001953125,0.82080078125,1.3427734375,0.42724609375,0.0,0.0164794921875,34.4036865234375,-164.4873046875
1758179745.2676892,-0.55810546875,0.005859375,0.82666015625,1.03759765625,0.18310546875,-0.3662109375,0.0274658203125,34.4036865234375,-164.4927978515625
1758179745.27811,-0.55810546875,0.005859375,0.82666015625,1.03759765625,0.18310546875,-0.3662109375,0.032958984375,34.4036865234375,-164.498291015625
1758179745.288126,-0.55810546875,0.01123046875,0.83544921875,0.48828125,0.3662109375,-0.79345703125,0.0384521484375,34.4091796875,-164.5037841796875
1758179745.298029,-0.55810546875,0.01123046875,0.83544921875,0.48828125,0.3662109375,-0.79345703125,0.0384521484375,34.4091796875,-164.5147705078125
1758179745.3080332,-0.5537109375,0.01171875,0.830078125,0.732421875,0.30517578125,-0.9765625,0.0384521484375,34.4091796875,-164.5257568359375
1758179745.3179615,-0.5537109375,0.01171875,0.830078125,0.732421875,0.30517578125,-0.9765625,0.0384521484375,34.4091796875,-164.5367431640625
1758179745.3289857,-0.5576171875,0.00390625,0.828125,0.1220703125,0.1220703125,-0.91552734375,0.0384521484375,34.4091796875,-164.5477294921875
1758179745.3379624,-0.5576171875,0.00390625,0.828125,0.1220703125,0.1220703125,-0.91552734375,0.032958984375,34.4091796875,-164.5587158203125
1758179745.347705,-0.5595703125,-0.00390625,0.82958984375,0.18310546875,0.18310546875,-0.79345703125,0.032958984375,34.4091796875,-164.5697021484375
1758179745.35854,-0.5595703125,-0.00390625,0.82958984375,0.18310546875,0.18310546875,-0.79345703125,0.032958984375,34.4091796875,-164.5806884765625
1758179745.3678823,-0.55517578125,-0.005859375,0.82958984375,1.0986328125,0.06103515625,-0.8544921875,0.0384521484375,34.4036865234375,-164.5916748046875
1758179745.37798,-0.55517578125,-0.005859375,0.82958984375,1.0986328125,0.06103515625,-0.8544921875,0.0439453125,34.4036865234375,-164.6026611328125
1758179745.3883061,-0.5546875,0.00244140625,0.82666015625,1.3427734375,-0.244140625,-0.79345703125,0.0494384765625,34.398193359375,-164.608154296875
1758179745.398103,-0.5546875,0.00244140625,0.82666015625,1.3427734375,-0.244140625,-0.79345703125,0.0604248046875,34.3927001953125,-164.619140625
1758179745.40778,-0.5556640625,0.00634765625,0.83203125,0.54931640625,-0.30517578125,-0.54931640625,0.0604248046875,34.38720703125,-164.630126953125
1758179745.4183123,-0.5556640625,0.00634765625,0.83203125,0.54931640625,-0.30517578125,-0.54931640625,0.06591796875,34.3817138671875,-164.6356201171875
1758179745.4281237,-0.5556640625,0.00439453125,0.83447265625,0.1220703125,-0.18310546875,-0.244140625,0.06591796875,34.376220703125,-164.64111328125
1758179745.4381378,-0.5556640625,0.00439453125,0.83447265625,0.1220703125,-0.18310546875,-0.244140625,0.06591796875,34.3707275390625,-164.6466064453125
1758179745.4480572,-0.5517578125,-0.00244140625,0.83203125,0.06103515625,0.0,0.0,0.06591796875,34.365234375,-164.6466064453125
1758179745.4580986,-0.5517578125,-0.00244140625,0.83203125,0.06103515625,0.0,0.0,0.06591796875,34.365234375,-164.6466064453125
1758179745.4680288,-0.55908203125,0.0,0.8359375,-0.18310546875,0.06103515625,0.1220703125,0.06591796875,34.3597412109375,-164.6466064453125
1758179745.478456,-0.55908203125,0.0,0.8359375,-0.18310546875,0.06103515625,0.1220703125,0.06591796875,34.3597412109375,-164.6466064453125
1758179745.4881895,-0.56591796875,0.0,0.82080078125,0.1220703125,0.244140625,0.244140625,0.06591796875,34.3597412109375,-164.6466064453125
1758179745.4980955,-0.56591796875,0.0,0.82080078125,0.1220703125,0.244140625,0.244140625,0.0714111328125,34.3597412109375,-164.6466064453125
1758179745.5079608,-0.56982421875,-0.00146484375,0.8232421875,0.18310546875,0.3662109375,0.06103515625,0.0714111328125,34.3597412109375,-164.6466064453125
1758179745.5185149,-0.56982421875,-0.00146484375,0.8232421875,0.18310546875,0.3662109375,0.06103515625,0.076904296875,34.3597412109375,-164.6466064453125
1758179745.528002,-0.56494140625,0.0107421875,0.82763671875,-0.1220703125,0.6103515625,-0.06103515625,0.0714111328125,34.365234375,-164.6466064453125
1758179745.5382872,-0.56494140625,0.0107421875,0.82763671875,-0.1220703125,0.6103515625,-0.06103515625,0.0714111328125,34.3707275390625,-164.6466064453125
1758179745.548166,-0.5625,0.009765625,0.8271484375,0.0,0.6103515625,-0.1220703125,0.0714111328125,34.376220703125,-164.652099609375
1758179745.5582302,-0.5625,0.009765625,0.8271484375,0.0,0.6103515625,-0.1220703125,0.0714111328125,34.3817138671875,-164.652099609375
1758179745.5680115,-0.56640625,0.00244140625,0.82470703125,-0.8544921875,0.67138671875,-0.1220703125,0.06591796875,34.38720703125,-164.652099609375
1758179745.578708,-0.56640625,0.00244140625,0.82470703125,-0.8544921875,0.67138671875,-0.1220703125,0.054931640625,34.3927001953125,-164.652099609375
1758179745.5882978,-0.5703125,-0.0009765625,0.81787109375,-0.67138671875,0.67138671875,-0.18310546875,0.0494384765625,34.398193359375,-164.6575927734375
1758179745.5982335,-0.5703125,-0.0009765625,0.81787109375,-0.67138671875,0.67138671875,-0.18310546875,0.0439453125,34.4036865234375,-164.6575927734375
1758179745.6080623,-0.56689453125,-0.00048828125,0.8212890625,0.0,0.732421875,-0.42724609375,0.0384521484375,34.4091796875,-164.6630859375
1758179745.6185277,-0.56689453125,-0.00048828125,0.8212890625,0.0,0.732421875,-0.42724609375,0.0384521484375,34.4146728515625,-164.6685791015625
1758179745.628076,-0.56982421875,0.0068359375,0.8271484375,0.0,0.732421875,-0.6103515625,0.032958984375,34.4256591796875,-164.674072265625
1758179745.638335,-0.56982421875,0.0068359375,0.8271484375,0.0,0.732421875,-0.6103515625,0.032958984375,34.43115234375,-164.68505859375
1758179745.6482332,-0.57177734375,0.0068359375,0.8125,-0.42724609375,0.54931640625,-0.54931640625,0.0274658203125,34.4366455078125,-164.6905517578125
1758179745.6582756,-0.57177734375,0.0068359375,0.8125,-0.42724609375,0.54931640625,-0.54931640625,0.0164794921875,34.442138671875,-164.696044921875
1758179745.668148,-0.5703125,0.00390625,0.81787109375,-0.8544921875,0.30517578125,-0.67138671875,0.0054931640625,34.4476318359375,-164.7015380859375
1758179745.6785104,-0.5703125,0.00390625,0.81787109375,-0.8544921875,0.30517578125,-0.67138671875,0.0,34.4476318359375,-164.7125244140625
1758179745.6883988,-0.5634765625,0.0009765625,0.8291015625,-0.79345703125,0.42724609375,-0.67138671875,-0.010986328125,34.453125,-164.718017578125
1758179745.6982439,-0.5634765625,0.0009765625,0.8291015625,-0.79345703125,0.42724609375,-0.67138671875,-0.02197265625,34.4586181640625,-164.7235107421875
1758179745.708168,-0.556640625,-0.0009765625,0.83203125,-0.06103515625,0.48828125,-0.6103515625,-0.0274658203125,34.464111328125,-164.72900390625
1758179745.7184298,-0.556640625,-0.0009765625,0.83203125,-0.06103515625,0.48828125,-0.6103515625,-0.0274658203125,34.4696044921875,-164.739990234375
1758179745.7284338,-0.55419921875,-0.0009765625,0.83203125,-0.48828125,0.54931640625,-0.42724609375,-0.032958984375,34.47509765625,-164.739990234375
1758179745.7383156,-0.55419921875,-0.0009765625,0.83203125,-0.48828125,0.54931640625,-0.42724609375,-0.0439453125,34.4805908203125,-164.7454833984375
1758179745.7483602,-0.5595703125,0.00146484375,0.83251953125,-1.64794921875,0.732421875,0.0,-0.054931640625,34.486083984375,-164.7454833984375
1758179745.7582715,-0.5595703125,0.00146484375,0.83251953125,-1.64794921875,0.732421875,0.0,-0.0714111328125,34.4915771484375,-164.7454833984375
1758179745.7682106,-0.55859375,-0.00244140625,0.82958984375,-1.64794921875,0.8544921875,0.244140625,-0.087890625,34.4970703125,-164.7454833984375
1758179745.778498,-0.55859375,-0.00244140625,0.82958984375,-1.64794921875,0.8544921875,0.244140625,-0.098876953125,34.5025634765625,-164.739990234375
1758179745.7901933,-0.5556640625,-0.0068359375,0.83056640625,-0.8544921875,0.91552734375,0.18310546875,-0.1043701171875,34.508056640625,-164.739990234375
1758179745.7984815,-0.5556640625,-0.0068359375,0.83056640625,-0.8544921875,0.91552734375,0.18310546875,-0.1153564453125,34.51904296875,-164.739990234375
1758179745.808534,-0.5517578125,-0.00390625,0.83203125,0.0,1.03759765625,0.18310546875,-0.10986328125,34.5245361328125,-164.739990234375
1758179745.8190331,-0.5517578125,-0.00390625,0.83203125,0.0,1.03759765625,0.18310546875,-0.10986328125,34.530029296875,-164.739990234375
1758179745.8302147,-0.544921875,-0.00146484375,0.841796875,1.15966796875,1.220703125,0.0,-0.098876953125,34.541015625,-164.739990234375
1758179745.838499,-0.544921875,-0.00146484375,0.841796875,1.15966796875,1.220703125,0.0,-0.087890625,34.5465087890625,-164.739990234375
1758179745.8542883,-0.54736328125,0.00634765625,0.83935546875,0.3662109375,1.3427734375,-0.06103515625,-0.0823974609375,34.5574951171875,-164.7454833984375
1758179745.8608148,-0.54736328125,0.00634765625,0.83935546875,0.3662109375,1.3427734375,-0.06103515625,-0.076904296875,34.56298828125,-164.7509765625
1758179745.8682215,-0.55517578125,0.01220703125,0.81884765625,-0.732421875,0.91552734375,-0.06103515625,-0.087890625,34.5684814453125,-164.7509765625
1758179745.884686,-0.55517578125,0.01220703125,0.81884765625,-0.732421875,0.91552734375,-0.06103515625,-0.0933837890625,34.573974609375,-164.7509765625
1758179745.8912501,-0.56103515625,0.00390625,0.8173828125,-0.6103515625,0.30517578125,-0.06103515625,-0.098876953125,34.5684814453125,-164.7564697265625
1758179745.8983207,-0.56103515625,0.00390625,0.8173828125,-0.6103515625,0.30517578125,-0.06103515625,-0.1043701171875,34.5684814453125,-164.7564697265625
1758179745.908665,-0.568359375,-0.00341796875,0.8349609375,-1.03759765625,0.3662109375,-0.3662109375,-0.1153564453125,34.5684814453125,-164.761962890625
1758179745.9229844,-0.568359375,-0.00341796875,0.8349609375,-1.03759765625,0.3662109375,-0.3662109375,-0.1263427734375,34.5684814453125,-164.7674560546875
1758179745.9292555,-0.56201171875,-0.0009765625,0.818359375,-0.244140625,0.3662109375,-0.67138671875,-0.1318359375,34.5684814453125,-164.7784423828125
1758179745.9385693,-0.56201171875,-0.0009765625,0.818359375,-0.244140625,0.3662109375,-0.67138671875,-0.1373291015625,34.5684814453125,-164.7894287109375
1758179745.9484026,-0.5615234375,0.00048828125,0.82568359375,0.244140625,0.1220703125,-0.79345703125,-0.1373291015625,34.5684814453125,-164.8004150390625
1758179745.9583557,-0.5615234375,0.00048828125,0.82568359375,0.244140625,0.1220703125,-0.79345703125,-0.1373291015625,34.56298828125,-164.8114013671875
1758179745.9683998,-0.5625,-0.00048828125,0.8193359375,-0.30517578125,-0.244140625,-0.79345703125,-0.1483154296875,34.5574951171875,-164.81689453125
1758179745.9783244,-0.5625,-0.00048828125,0.8193359375,-0.30517578125,-0.244140625,-0.79345703125,-0.15380859375,34.5574951171875,-164.827880859375
1758179745.9888334,-0.5634765625,0.0009765625,0.8154296875,-0.30517578125,-0.67138671875,-0.8544921875,-0.1593017578125,34.5465087890625,-164.8388671875
1758179745.9983675,-0.5634765625,0.0009765625,0.8154296875,-0.30517578125,-0.67138671875,-0.8544921875,-0.1702880859375,34.5355224609375,-164.8553466796875
1758179746.0087266,-0.5634765625,0.0009765625,0.8154296875,0.0,-0.91552734375,-0.79345703125,-0.17578125,34.5245361328125,-164.86083984375
1758179746.0183728,-0.5673828125,-0.005859375,0.83544921875,-0.79345703125,-0.79345703125,-0.732421875,-0.1812744140625,34.51904296875,-164.871826171875
1758179746.0287044,-0.5673828125,-0.005859375,0.83544921875,-0.79345703125,-0.79345703125,-0.732421875,-0.1922607421875,34.508056640625,-164.8828125
1758179746.038486,-0.57568359375,-0.00390625,0.8134765625,0.06103515625,-0.67138671875,-0.54931640625,-0.19775390625,34.4970703125,-164.893798828125
1758179746.0485163,-0.57568359375,-0.00390625,0.8134765625,0.06103515625,-0.67138671875,-0.54931640625,-0.2032470703125,34.4915771484375,-164.8992919921875
1758179746.0585127,-0.58984375,-0.0078125,0.80419921875,0.48828125,-0.79345703125,-0.3662109375,-0.2032470703125,34.486083984375,-164.90478515625
1758179746.0685103,-0.58984375,-0.0078125,0.80419921875,0.48828125,-0.79345703125,-0.3662109375,-0.19775390625,34.47509765625,-164.9102783203125
1758179746.0784087,-0.5966796875,0.00244140625,0.8076171875,-0.67138671875,-0.67138671875,0.0,-0.2032470703125,34.4696044921875,-164.9102783203125
1758179746.0910995,-0.5966796875,0.00244140625,0.8076171875,-0.67138671875,-0.67138671875,0.0,-0.208740234375,34.4696044921875,-164.9102783203125
1758179746.0997727,-0.58154296875,-0.00439453125,0.81591796875,-0.42724609375,-0.3662109375,0.244140625,-0.208740234375,34.464111328125,-164.9102783203125
1758179746.1086187,-0.58154296875,-0.00439453125,0.81591796875,-0.42724609375,-0.3662109375,0.244140625,-0.2142333984375,34.4696044921875,-164.90478515625
1758179746.124853,-0.5751953125,-0.00439453125,0.82373046875,-0.30517578125,-0.244140625,0.30517578125,-0.2142333984375,34.4696044921875,-164.8992919921875
1758179746.1312046,-0.5751953125,-0.00439453125,0.82373046875,-0.30517578125,-0.244140625,0.30517578125,-0.2142333984375,34.4696044921875,-164.893798828125
1758179746.1395433,-0.57275390625,0.0009765625,0.81396484375,-0.18310546875,-0.42724609375,0.42724609375,-0.2142333984375,34.4696044921875,-164.8883056640625
1758179746.148964,-0.57275390625,0.0009765625,0.81396484375,-0.18310546875,-0.42724609375,0.42724609375,-0.2142333984375,34.4696044921875,-164.8828125
1758179746.1591368,-0.5771484375,0.00244140625,0.814453125,0.0,-0.54931640625,0.3662109375,-0.208740234375,34.4696044921875,-164.8773193359375
1758179746.1687193,-0.5771484375,0.00244140625,0.814453125,0.0,-0.54931640625,0.3662109375,-0.208740234375,34.4696044921875,-164.871826171875
1758179746.1790593,-0.58154296875,0.00341796875,0.8212890625,-0.91552734375,-0.1220703125,0.30517578125,-0.208740234375,34.4696044921875,-164.8663330078125
1758179746.1899533,-0.58154296875,0.00341796875,0.8212890625,-0.91552734375,-0.1220703125,0.30517578125,-0.2142333984375,34.4696044921875,-164.8663330078125
1758179746.1991444,-0.5732421875,0.0,0.8203125,-0.91552734375,0.18310546875,0.244140625,-0.2197265625,34.47509765625,-164.86083984375
1758179746.2090602,-0.5732421875,0.0,0.8203125,-0.91552734375,0.18310546875,0.244140625,-0.2252197265625,34.4805908203125,-164.8553466796875
1758179746.2201397,-0.56689453125,-0.00537109375,0.8193359375,-0.54931640625,0.30517578125,0.1220703125,-0.230712890625,34.486083984375,-164.849853515625
1758179746.2287614,-0.56689453125,-0.00537109375,0.8193359375,-0.54931640625,0.30517578125,0.1220703125,-0.2362060546875,34.4970703125,-164.849853515625
1758179746.2393987,-0.56787109375,-0.00439453125,0.830078125,0.06103515625,0.3662109375,0.06103515625,-0.2362060546875,34.5025634765625,-164.8443603515625
1758179746.2490683,-0.56787109375,-0.00439453125,0.830078125,0.06103515625,0.3662109375,0.06103515625,-0.2362060546875,34.508056640625,-164.8443603515625
1758179746.258662,-0.56787109375,0.0,0.822265625,0.30517578125,0.6103515625,0.06103515625,-0.230712890625,34.5135498046875,-164.8443603515625
1758179746.2688344,-0.56787109375,0.0,0.822265625,0.30517578125,0.6103515625,0.06103515625,-0.2252197265625,34.5245361328125,-164.8443603515625
1758179746.2786326,-0.5712890625,0.0009765625,0.82080078125,-0.3662109375,0.732421875,0.244140625,-0.2252197265625,34.530029296875,-164.8443603515625
1758179746.2900474,-0.5712890625,0.0009765625,0.82080078125,-0.3662109375,0.732421875,0.244140625,-0.2252197265625,34.541015625,-164.8388671875
1758179746.2987406,-0.5673828125,0.00048828125,0.82080078125,-1.8310546875,0.79345703125,0.6103515625,-0.2362060546875,34.552001953125,-164.8333740234375
1758179746.3091223,-0.5673828125,0.00048828125,0.82080078125,-1.8310546875,0.79345703125,0.6103515625,-0.2471923828125,34.56298828125,-164.827880859375
1758179746.3193598,-0.568359375,-0.0048828125,0.82373046875,-1.0986328125,0.79345703125,0.91552734375,-0.252685546875,34.5684814453125,-164.81689453125
1758179746.328985,-0.568359375,-0.0048828125,0.82373046875,-1.0986328125,0.79345703125,0.91552734375,-0.2581787109375,34.5794677734375,-164.805908203125
1758179746.3388228,-0.56689453125,-0.0107421875,0.82373046875,-0.732421875,0.8544921875,0.9765625,-0.2581787109375,34.5904541015625,-164.794921875
1758179746.355011,-0.56689453125,-0.0107421875,0.82373046875,-0.732421875,0.8544921875,0.9765625,-0.2581787109375,34.595947265625,-164.783935546875
1758179746.361004,-0.56982421875,-0.0029296875,0.826171875,-0.18310546875,1.03759765625,0.91552734375,-0.2581787109375,34.60693359375,-164.77294921875
1758179746.3688133,-0.56982421875,-0.0029296875,0.826171875,-0.18310546875,1.03759765625,0.91552734375,-0.252685546875,34.617919921875,-164.761962890625
1758179746.3787422,-0.57568359375,0.0,0.8291015625,0.79345703125,1.46484375,0.8544921875,-0.24169921875,34.6343994140625,-164.7564697265625
1758179746.3892078,-0.57568359375,0.0,0.8291015625,0.79345703125,1.46484375,0.8544921875,-0.230712890625,34.65087890625,-164.7454833984375
1758179746.398783,-0.57177734375,0.00048828125,0.8076171875,0.9765625,1.46484375,0.91552734375,-0.2142333984375,34.661865234375,-164.7344970703125
1758179746.4090195,-0.57177734375,0.00048828125,0.8076171875,0.9765625,1.46484375,0.91552734375,-0.19775390625,34.6783447265625,-164.7235107421875
1758179746.4192717,-0.56591796875,-0.0009765625,0.81396484375,-0.6103515625,1.03759765625,0.8544921875,-0.1922607421875,34.6893310546875,-164.7125244140625
1758179746.4297993,-0.56591796875,-0.0009765625,0.81396484375,-0.6103515625,1.03759765625,0.8544921875,-0.1922607421875,34.705810546875,-164.7015380859375
1758179746.4389145,-0.5634765625,0.00390625,0.8369140625,-1.220703125,1.03759765625,0.79345703125,-0.1922607421875,34.716796875,-164.696044921875
1758179746.4550548,-0.5634765625,0.00390625,0.8369140625,-1.220703125,1.03759765625,0.79345703125,-0.19775390625,34.7222900390625,-164.68505859375
1758179746.4610517,-0.5576171875,0.001953125,0.82861328125,-0.6103515625,1.03759765625,0.732421875,-0.2032470703125,34.7332763671875,-164.6795654296875
1758179746.4689865,-0.5576171875,0.001953125,0.82861328125,-0.6103515625,1.03759765625,0.732421875,-0.2032470703125,34.7442626953125,-164.6685791015625
1758179746.4788353,-0.56787109375,-0.00048828125,0.81982421875,0.0,0.91552734375,0.54931640625,-0.19775390625,34.749755859375,-164.6630859375
1758179746.4892948,-0.56787109375,-0.00048828125,0.81982421875,0.0,0.91552734375,0.54931640625,-0.1922607421875,34.7607421875,-164.6575927734375
1758179746.4989076,-0.5751953125,-0.00537109375,0.8203125,-1.52587890625,0.8544921875,0.6103515625,-0.19775390625,34.7662353515625,-164.652099609375
1758179746.508947,-0.5751953125,-0.00537109375,0.8203125,-1.52587890625,0.8544921875,0.6103515625,-0.208740234375,34.7772216796875,-164.6466064453125
1758179746.5193584,-0.57568359375,-0.00439453125,0.81103515625,-0.91552734375,0.67138671875,0.6103515625,-0.2142333984375,34.78271484375,-164.64111328125
1758179746.5292072,-0.57568359375,-0.00439453125,0.81103515625,-0.91552734375,0.67138671875,0.6103515625,-0.2197265625,34.7882080078125,-164.6356201171875
1758179746.5389264,-0.564453125,-0.00830078125,0.81787109375,-0.244140625,0.3662109375,0.42724609375,-0.2197265625,34.793701171875,-164.630126953125
1758179746.5490394,-0.564453125,-0.00830078125,0.81787109375,-0.244140625,0.3662109375,0.42724609375,-0.2197265625,34.7991943359375,-164.6246337890625
1758179746.5591376,-0.5595703125,0.00146484375,0.8330078125,0.0,0.3662109375,0.0,-0.2197265625,34.7991943359375,-164.6246337890625
1758179746.5689788,-0.5595703125,0.00146484375,0.8330078125,0.0,0.3662109375,0.0,-0.2197265625,34.8046875,-164.6246337890625
1758179746.578936,-0.5576171875,0.0029296875,0.83642578125,0.30517578125,0.54931640625,-0.1220703125,-0.2197265625,34.8046875,-164.630126953125
1758179746.589413,-0.5576171875,0.0029296875,0.83642578125,0.30517578125,0.54931640625,-0.1220703125,-0.2142333984375,34.8101806640625,-164.6356201171875
1758179746.5989826,-0.56396484375,0.01025390625,0.822265625,0.0,0.54931640625,0.0,-0.2142333984375,34.815673828125,-164.6356201171875
1758179746.609031,-0.56396484375,0.01025390625,0.822265625,0.0,0.54931640625,0.0,-0.2142333984375,34.815673828125,-164.6356201171875
1758179746.619432,-0.568359375,-0.00537109375,0.8173828125,-1.15966796875,0.42724609375,0.1220703125,-0.2142333984375,34.8211669921875,-164.6356201171875
1758179746.629254,-0.568359375,-0.00537109375,0.8173828125,-1.15966796875,0.42724609375,0.1220703125,-0.2252197265625,34.8211669921875,-164.6356201171875
1758179746.639074,-0.56640625,-0.00830078125,0.8232421875,-1.28173828125,0.3662109375,0.06103515625,-0.2362060546875,34.8211669921875,-164.6356201171875
1758179746.6491435,-0.56640625,-0.00830078125,0.8232421875,-1.28173828125,0.3662109375,0.06103515625,-0.2471923828125,34.82666015625,-164.6356201171875
1758179746.6590679,-0.5693359375,-0.01123046875,0.82666015625,0.8544921875,0.42724609375,0.0,-0.2471923828125,34.82666015625,-164.64111328125
1758179746.6690779,-0.5693359375,-0.01123046875,0.82666015625,0.8544921875,0.42724609375,0.0,-0.24169921875,34.82666015625,-164.64111328125
1758179746.679039,-0.5673828125,-0.00341796875,0.818359375,2.01416015625,0.30517578125,-0.244140625,-0.2252197265625,34.8321533203125,-164.6466064453125
1758179746.6920164,-0.5673828125,-0.00341796875,0.818359375,2.01416015625,0.30517578125,-0.244140625,-0.208740234375,34.8321533203125,-164.652099609375
1758179746.7005153,-0.57470703125,0.00830078125,0.81982421875,2.01416015625,0.0,-0.30517578125,-0.186767578125,34.8321533203125,-164.652099609375
1758179746.7092152,-0.57470703125,0.00830078125,0.81982421875,2.01416015625,0.0,-0.30517578125,-0.1702880859375,34.8321533203125,-164.6575927734375
1758179746.7193081,-0.5791015625,0.0048828125,0.80859375,0.54931640625,-0.18310546875,-0.244140625,-0.1593017578125,34.82666015625,-164.6630859375
1758179746.7293706,-0.5791015625,0.0048828125,0.80859375,0.54931640625,-0.18310546875,-0.244140625,-0.15380859375,34.82666015625,-164.6685791015625
1758179746.739336,-0.587890625,0.001953125,0.80517578125,-1.5869140625,-0.48828125,-0.06103515625,-0.1593017578125,34.8211669921875,-164.6685791015625
1758179746.7492802,-0.587890625,0.001953125,0.80517578125,-1.5869140625,-0.48828125,-0.06103515625,-0.17578125,34.8211669921875,-164.6685791015625
1758179746.759257,-0.58740234375,-0.00732421875,0.8125,-1.46484375,-0.48828125,0.06103515625,-0.1922607421875,34.815673828125,-164.6685791015625
1758179746.7692401,-0.58740234375,-0.00732421875,0.8125,-1.46484375,-0.48828125,0.06103515625,-0.2032470703125,34.815673828125,-164.6685791015625
1758179746.7791178,-0.58447265625,-0.01220703125,0.80712890625,0.1220703125,-0.54931640625,0.0,-0.208740234375,34.8101806640625,-164.6685791015625
1758179746.789535,-0.58447265625,-0.01220703125,0.80712890625,0.1220703125,-0.54931640625,0.0,-0.208740234375,34.8101806640625,-164.6685791015625
1758179746.7991743,-0.57958984375,-0.00048828125,0.81298828125,2.0751953125,-0.67138671875,0.0,-0.19775390625,34.8046875,-164.6685791015625
1758179746.809278,-0.57958984375,-0.00048828125,0.81298828125,2.0751953125,-0.67138671875,0.0,-0.17578125,34.7991943359375,-164.6685791015625
1758179746.8197405,-0.58837890625,0.00244140625,0.8125,2.86865234375,-0.3662109375,0.06103515625,-0.1483154296875,34.7991943359375,-164.6685791015625
1758179746.829508,-0.58837890625,0.00244140625,0.8125,2.86865234375,-0.3662109375,0.06103515625,-0.120849609375,34.7991943359375,-164.6685791015625
1758179746.8393133,-0.5771484375,0.0048828125,0.8212890625,-0.18310546875,0.06103515625,0.42724609375,-0.1043701171875,34.8046875,-164.6630859375
1758179746.8493662,-0.5771484375,0.0048828125,0.8212890625,-0.18310546875,0.06103515625,0.42724609375,-0.1043701171875,34.8046875,-164.6575927734375
1758179746.859304,-0.56298828125,0.02001953125,0.8232421875,-2.99072265625,0.42724609375,1.40380859375,-0.1153564453125,34.8101806640625,-164.6466064453125
1758179746.8694942,-0.56298828125,0.02001953125,0.8232421875,-2.99072265625,0.42724609375,1.40380859375,-0.1318359375,34.8211669921875,-164.630126953125
1758179746.8792715,-0.58447265625,-0.02490234375,0.8193359375,-0.6103515625,0.79345703125,0.91552734375,-0.142822265625,34.82666015625,-164.6136474609375
1758179746.8896449,-0.58447265625,-0.02490234375,0.8193359375,-0.6103515625,0.79345703125,0.91552734375,-0.1373291015625,34.837646484375,-164.6026611328125
1758179746.8993201,-0.57666015625,-0.01025390625,0.80908203125,2.25830078125,0.8544921875,0.06103515625,-0.1263427734375,34.8486328125,-164.59716796875
1758179746.9093087,-0.57666015625,-0.01025390625,0.80908203125,2.25830078125,0.8544921875,0.06103515625,-0.1043701171875,34.859619140625,-164.59716796875
1758179746.9198794,-0.58935546875,0.00732421875,0.82568359375,3.662109375,1.3427734375,0.06103515625,-0.076904296875,34.8760986328125,-164.59716796875
1758179746.929588,-0.58935546875,0.00732421875,0.82568359375,3.662109375,1.3427734375,0.06103515625,-0.0384521484375,34.892578125,-164.59716796875
1758179746.939425,-0.57470703125,0.00390625,0.80517578125,2.3193359375,1.40380859375,0.18310546875,-0.010986328125,34.9090576171875,-164.59716796875
1758179746.949471,-0.57470703125,0.00390625,0.80517578125,2.3193359375,1.40380859375,0.18310546875,0.010986328125,34.925537109375,-164.59716796875
1758179746.9593594,-0.5625,0.01318359375,0.81591796875,1.0986328125,1.0986328125,0.0,0.0274658203125,34.9365234375,-164.59716796875
1758179746.9694357,-0.5625,0.01318359375,0.81591796875,1.0986328125,1.0986328125,0.0,0.0384521484375,34.9530029296875,-164.59716796875
1758179746.9793727,-0.57470703125,0.00146484375,0.83447265625,1.28173828125,1.0986328125,-0.244140625,0.0494384765625,34.9639892578125,-164.6026611328125
1758179746.9919317,-0.57470703125,0.00146484375,0.83447265625,1.28173828125,1.0986328125,-0.244140625,0.0604248046875,34.9749755859375,-164.608154296875
1758179747.0003464,-0.56640625,0.0029296875,0.8203125,0.732421875,0.8544921875,-0.54931640625,0.06591796875,34.9859619140625,-164.6136474609375
1758179747.0095203,-0.56640625,0.0029296875,0.8203125,0.732421875,0.8544921875,-0.54931640625,0.0714111328125,34.9969482421875,-164.6246337890625
1758179747.0200622,-0.57275390625,0.00927734375,0.80322265625,2.197265625,0.06103515625,-0.18310546875,0.0823974609375,35.00244140625,-164.630126953125
1758179747.0295208,-0.57275390625,0.00927734375,0.80322265625,2.197265625,0.06103515625,-0.18310546875,0.1043701171875,35.00244140625,-164.630126953125
1758179747.0397246,-0.58740234375,-0.00244140625,0.81298828125,1.03759765625,-0.244140625,0.244140625,0.120849609375,35.00244140625,-164.6356201171875
1758179747.0495672,-0.58740234375,-0.00244140625,0.81298828125,1.03759765625,-0.244140625,0.244140625,0.1373291015625,34.9969482421875,-164.630126953125
1758179747.0594947,-0.58740234375,-0.00244140625,0.81298828125,-0.30517578125,0.42724609375,0.6103515625,0.142822265625,35.00244140625,-164.6246337890625
1758179747.0695438,-0.5888671875,-0.00048828125,0.81494140625,-0.30517578125,0.42724609375,0.6103515625,0.142822265625,35.0079345703125,-164.619140625
1758179747.0794876,-0.587890625,-0.00830078125,0.82275390625,2.44140625,1.220703125,0.54931640625,0.1702880859375,35.0244140625,-164.619140625
1758179747.0898132,-0.587890625,-0.00830078125,0.82275390625,2.44140625,1.220703125,0.54931640625,0.19775390625,35.035400390625,-164.6136474609375
1758179747.0995417,-0.580078125,0.0,0.80517578125,3.84521484375,1.220703125,0.48828125,0.24169921875,35.0518798828125,-164.608154296875
1758179747.1095665,-0.580078125,0.0,0.80517578125,3.84521484375,1.220703125,0.48828125,0.2801513671875,35.0628662109375,-164.608154296875
1758179747.1200974,-0.58544921875,0.009765625,0.79638671875,3.2958984375,0.54931640625,0.54931640625,0.3131103515625,35.0738525390625,-164.6026611328125
1758179747.1297143,-0.58544921875,0.009765625,0.79638671875,3.2958984375,0.54931640625,0.54931640625,0.3515625,35.079345703125,-164.59716796875
1758179747.1397853,-0.58837890625,0.017578125,0.8095703125,1.64794921875,0.48828125,0.54931640625,0.3680419921875,35.09033203125,-164.5916748046875
1758179747.149718,-0.58837890625,0.017578125,0.8095703125,1.64794921875,0.48828125,0.54931640625,0.3900146484375,35.0958251953125,-164.586181640625
1758179747.1596353,-0.578125,0.01806640625,0.81689453125,0.48828125,0.91552734375,0.79345703125,0.4010009765625,35.1123046875,-164.5751953125
1758179747.1696758,-0.578125,0.01806640625,0.81689453125,0.48828125,0.91552734375,0.79345703125,0.4119873046875,35.123291015625,-164.5697021484375
1758179747.179598,-0.58251953125,0.0,0.8251953125,0.244140625,1.52587890625,0.67138671875,0.41748046875,35.1397705078125,-164.5587158203125
1758179747.1899385,-0.58251953125,0.0,0.8251953125,0.244140625,1.52587890625,0.67138671875,0.428466796875,35.15625,-164.55322265625
1758179747.199635,-0.576171875,0.00439453125,0.81591796875,0.42724609375,1.953125,0.48828125,0.4339599609375,35.17822265625,-164.5477294921875
1758179747.2097144,-0.576171875,0.00439453125,0.81591796875,0.42724609375,1.953125,0.48828125,0.439453125,35.2001953125,-164.5477294921875
1758179747.2233496,-0.5830078125,0.0068359375,0.80224609375,2.50244140625,2.01416015625,0.3662109375,0.4669189453125,35.22216796875,-164.542236328125
1758179747.2298973,-0.5830078125,0.0068359375,0.80224609375,2.50244140625,2.01416015625,0.3662109375,0.494384765625,35.244140625,-164.542236328125
1758179747.2397442,-0.5771484375,0.00341796875,0.82763671875,2.99072265625,2.50244140625,0.18310546875,0.52734375,35.2716064453125,-164.542236328125
1758179747.249985,-0.5771484375,0.00341796875,0.82763671875,2.99072265625,2.50244140625,0.18310546875,0.5548095703125,35.299072265625,-164.542236328125
1758179747.259756,-0.55810546875,0.0205078125,0.83251953125,2.13623046875,2.8076171875,0.06103515625,0.5767822265625,35.3265380859375,-164.542236328125
1758179747.2698164,-0.55810546875,0.0205078125,0.83251953125,2.13623046875,2.8076171875,0.06103515625,0.5987548828125,35.35400390625,-164.542236328125
1758179747.279687,-0.55517578125,0.0185546875,0.8271484375,1.40380859375,2.50244140625,0.244140625,0.615234375,35.3759765625,-164.542236328125
1758179747.290027,-0.55517578125,0.0185546875,0.8271484375,1.40380859375,2.50244140625,0.244140625,0.6317138671875,35.39794921875,-164.542236328125
1758179747.29977,-0.5693359375,0.01513671875,0.82080078125,1.28173828125,1.77001953125,0.30517578125,0.648193359375,35.4144287109375,-164.542236328125
1758179747.309754,-0.5693359375,0.01513671875,0.82080078125,1.28173828125,1.77001953125,0.30517578125,0.6646728515625,35.4254150390625,-164.542236328125
1758179747.320278,-0.57470703125,0.00537109375,0.802734375,0.91552734375,1.0986328125,0.48828125,0.6756591796875,35.4364013671875,-164.542236328125
1758179747.329817,-0.57470703125,0.00537109375,0.802734375,0.91552734375,1.0986328125,0.48828125,0.692138671875,35.44189453125,-164.5367431640625
1758179747.3400784,-0.578125,0.00146484375,0.82177734375,-0.42724609375,1.03759765625,0.732421875,0.692138671875,35.452880859375,-164.53125
1758179747.3500245,-0.578125,0.00146484375,0.82177734375,-0.42724609375,1.03759765625,0.732421875,0.692138671875,35.4583740234375,-164.5257568359375
1758179747.3598585,-0.56103515625,0.00732421875,0.8271484375,-0.18310546875,0.9765625,0.3662109375,0.692138671875,35.4638671875,-164.5257568359375
1758179747.369884,-0.56103515625,0.00732421875,0.8271484375,-0.18310546875,0.9765625,0.3662109375,0.692138671875,35.4693603515625,-164.5257568359375
1758179747.3798099,-0.568359375,0.0185546875,0.8232421875,1.03759765625,0.6103515625,-0.06103515625,0.703125,35.474853515625,-164.53125
1758179747.390392,-0.568359375,0.0185546875,0.8232421875,1.03759765625,0.6103515625,-0.06103515625,0.7086181640625,35.474853515625,-164.5367431640625
1758179747.3999565,-0.5673828125,0.0302734375,0.82275390625,0.30517578125,0.42724609375,-0.48828125,0.7086181640625,35.474853515625,-164.5477294921875
1758179747.40991,-0.5673828125,0.0302734375,0.82275390625,0.30517578125,0.42724609375,-0.48828125,0.714111328125,35.474853515625,-164.5587158203125
1758179747.4203362,-0.5859375,0.03271484375,0.806640625,-0.91552734375,-0.06103515625,-0.244140625,0.703125,35.4693603515625,-164.564208984375
1758179747.4299352,-0.5859375,0.03271484375,0.806640625,-0.91552734375,-0.06103515625,-0.244140625,0.6976318359375,35.4693603515625,-164.564208984375
1758179747.4401524,-0.58447265625,0.00732421875,0.78564453125,-3.23486328125,-1.15966796875,0.18310546875,0.6646728515625,35.452880859375,-164.564208984375
1758179747.4500828,-0.58447265625,0.00732421875,0.78564453125,-3.23486328125,-1.15966796875,0.18310546875,0.63720703125,35.44189453125,-164.564208984375
1758179747.4599276,-0.58203125,0.005859375,0.8095703125,-4.94384765625,-2.01416015625,0.30517578125,0.59326171875,35.419921875,-164.564208984375
1758179747.4700232,-0.58203125,0.005859375,0.8095703125,-4.94384765625,-2.01416015625,0.30517578125,0.54931640625,35.39794921875,-164.5587158203125
1758179747.4799216,-0.587890625,-0.001953125,0.8193359375,-2.9296875,-1.89208984375,0.18310546875,0.5218505859375,35.3814697265625,-164.5587158203125
1758179747.4901814,-0.587890625,-0.001953125,0.8193359375,-2.9296875,-1.89208984375,0.18310546875,0.494384765625,35.364990234375,-164.5587158203125
1758179747.500003,-0.5751953125,-0.00146484375,0.8212890625,-1.40380859375,-1.5869140625,-0.1220703125,0.4833984375,35.3485107421875,-164.564208984375
1758179747.5099647,-0.5751953125,-0.00146484375,0.8212890625,-1.40380859375,-1.5869140625,-0.1220703125,0.4669189453125,35.33203125,-164.5697021484375
1758179747.5204332,-0.57470703125,0.01220703125,0.81005859375,-0.732421875,-1.89208984375,-0.1220703125,0.46142578125,35.3155517578125,-164.5697021484375
1758179747.5301945,-0.57470703125,0.01220703125,0.81005859375,-0.732421875,-1.89208984375,-0.1220703125,0.4559326171875,35.2935791015625,-164.5751953125
1758179747.5402405,-0.57666015625,0.01806640625,0.8046875,-2.8076171875,-2.13623046875,0.1220703125,0.428466796875,35.2716064453125,-164.5751953125
1758179747.5501661,-0.57666015625,0.01806640625,0.8046875,-2.8076171875,-2.13623046875,0.1220703125,0.4010009765625,35.255126953125,-164.5751953125
1758179747.5602427,-0.5830078125,0.0146484375,0.83056640625,-5.31005859375,-1.89208984375,0.30517578125,0.3515625,35.233154296875,-164.5751953125
1758179747.5701454,-0.5830078125,0.0146484375,0.83056640625,-5.31005859375,-1.89208984375,0.30517578125,0.3076171875,35.2166748046875,-164.5697021484375
1758179747.5800383,-0.58056640625,-0.00048828125,0.81103515625,-2.685546875,-1.46484375,0.30517578125,0.28564453125,35.2056884765625,-164.5697021484375
1758179747.5953758,-0.58056640625,-0.00048828125,0.81103515625,-2.685546875,-1.46484375,0.30517578125,0.263671875,35.189208984375,-164.564208984375
1758179747.6036446,-0.58154296875,-0.0126953125,0.80615234375,1.46484375,-1.64794921875,0.0,0.2801513671875,35.1727294921875,-164.5697021484375
1758179747.6100342,-0.58154296875,-0.0126953125,0.80615234375,1.46484375,-1.64794921875,0.0,0.2911376953125,35.1617431640625,-164.5697021484375
1758179747.6202629,-0.5703125,0.00048828125,0.8173828125,1.8310546875,-1.708984375,-0.1220703125,0.3131103515625,35.145263671875,-164.5751953125
1758179747.630896,-0.5703125,0.00048828125,0.8173828125,1.8310546875,-1.708984375,-0.1220703125,0.32958984375,35.1287841796875,-164.5751953125
1758179747.6401496,-0.57568359375,0.01513671875,0.83154296875,0.732421875,-1.0986328125,0.1220703125,0.3350830078125,35.1177978515625,-164.5751953125
1758179747.6503882,-0.57568359375,0.01513671875,0.83154296875,0.732421875,-1.0986328125,0.1220703125,0.3460693359375,35.1068115234375,-164.5751953125
1758179747.660365,-0.5712890625,0.01171875,0.82275390625,-0.06103515625,-0.6103515625,0.3662109375,0.3460693359375,35.101318359375,-164.5751953125
1758179747.6702387,-0.5712890625,0.01171875,0.82275390625,-0.06103515625,-0.6103515625,0.3662109375,0.3515625,35.0958251953125,-164.5697021484375
1758179747.680123,-0.56884765625,0.00390625,0.8134765625,-0.79345703125,-0.732421875,0.54931640625,0.3460693359375,35.09033203125,-164.564208984375
1758179747.6904302,-0.56884765625,0.00390625,0.8134765625,-0.79345703125,-0.732421875,0.54931640625,0.3460693359375,35.0848388671875,-164.5587158203125
1758179747.70019,-0.572265625,0.0029296875,0.822265625,-0.79345703125,-0.79345703125,0.48828125,0.340576171875,35.0738525390625,-164.5587158203125
1758179747.710226,-0.572265625,0.0029296875,0.822265625,-0.79345703125,-0.79345703125,0.48828125,0.3350830078125,35.068359375,-164.55322265625
1758179747.720649,-0.5712890625,0.0048828125,0.81298828125,0.732421875,-1.15966796875,0.18310546875,0.3460693359375,35.057373046875,-164.55322265625
1758179747.73022,-0.5712890625,0.0048828125,0.81298828125,0.732421875,-1.15966796875,0.18310546875,0.3515625,35.04638671875,-164.55322265625
1758179747.740258,-0.56640625,0.01318359375,0.82421875,0.244140625,-1.0986328125,0.06103515625,0.3570556640625,35.035400390625,-164.55322265625
1758179747.7505975,-0.56640625,0.01318359375,0.82421875,0.244140625,-1.0986328125,0.06103515625,0.362548828125,35.0244140625,-164.55322265625
1758179747.7603807,-0.5673828125,0.013671875,0.830078125,-1.15966796875,-0.9765625,0.1220703125,0.3515625,35.013427734375,-164.55322265625
1758179747.770278,-0.5673828125,0.013671875,0.830078125,-1.15966796875,-0.9765625,0.1220703125,0.340576171875,35.00244140625,-164.55322265625
1758179747.780246,-0.5634765625,0.0107421875,0.81884765625,-2.50244140625,-1.15966796875,0.06103515625,0.318603515625,34.9859619140625,-164.5587158203125
1758179747.7905123,-0.5634765625,0.0107421875,0.81884765625,-2.50244140625,-1.15966796875,0.06103515625,0.296630859375,34.9749755859375,-164.5587158203125
1758179747.800319,-0.57861328125,0.00732421875,0.818359375,-1.52587890625,-1.220703125,0.0,0.2801513671875,34.9639892578125,-164.5587158203125
1758179747.810268,-0.57861328125,0.00732421875,0.818359375,-1.52587890625,-1.220703125,0.0,0.2691650390625,34.947509765625,-164.564208984375
1758179747.8206964,-0.57861328125,-0.00390625,0.81640625,1.89208984375,-1.15966796875,-0.48828125,0.28564453125,34.9365234375,-164.5697021484375
1758179747.830452,-0.57861328125,-0.00390625,0.81640625,1.89208984375,-1.15966796875,-0.48828125,0.3021240234375,34.925537109375,-164.5806884765625
1758179747.8403943,-0.578125,0.0,0.8046875,3.23486328125,-1.46484375,-0.79345703125,0.32958984375,34.91455078125,-164.5916748046875
1758179747.8506155,-0.578125,0.0,0.8046875,3.23486328125,-1.46484375,-0.79345703125,0.3570556640625,34.8980712890625,-164.6026611328125
1758179747.8604872,-0.57177734375,0.015625,0.82275390625,0.91552734375,-1.52587890625,-0.48828125,0.362548828125,34.8870849609375,-164.608154296875
1758179747.870427,-0.57177734375,0.015625,0.82275390625,0.91552734375,-1.52587890625,-0.48828125,0.3680419921875,34.87060546875,-164.619140625
1758179747.8804128,-0.57373046875,0.0107421875,0.8251953125,-0.91552734375,-1.3427734375,-0.244140625,0.3570556640625,34.859619140625,-164.6246337890625
1758179747.8921502,-0.57373046875,0.0107421875,0.8251953125,-0.91552734375,-1.3427734375,-0.244140625,0.3515625,34.8431396484375,-164.6246337890625
1758179747.9004638,-0.58203125,0.00439453125,0.81640625,0.244140625,-1.03759765625,-0.3662109375,0.3515625,34.837646484375,-164.630126953125
1758179747.9108124,-0.58203125,0.00439453125,0.81640625,0.244140625,-1.03759765625,-0.3662109375,0.3515625,34.82666015625,-164.6356201171875
1758179747.9271142,-0.58837890625,0.0,0.806640625,2.01416015625,-0.9765625,-0.48828125,0.3680419921875,34.8211669921875,-164.6466064453125
1758179747.9333935,-0.58837890625,0.0,0.806640625,2.01416015625,-0.9765625,-0.48828125,0.384521484375,34.8101806640625,-164.652099609375
1758179747.9404578,-0.5830078125,0.0048828125,0.80419921875,2.0751953125,-1.220703125,-0.54931640625,0.4010009765625,34.8046875,-164.6630859375
1758179747.950789,-0.5830078125,0.0048828125,0.80419921875,2.0751953125,-1.220703125,-0.54931640625,0.41748046875,34.793701171875,-164.6685791015625
1758179747.9605143,-0.578125,0.01318359375,0.8154296875,0.91552734375,-1.40380859375,-0.48828125,0.4229736328125,34.78271484375,-164.674072265625
1758179747.970467,-0.578125,0.01318359375,0.8154296875,0.91552734375,-1.40380859375,-0.48828125,0.428466796875,34.771728515625,-164.68505859375
1758179747.9804604,-0.57421875,0.0146484375,0.81787109375,0.30517578125,-1.40380859375,-0.244140625,0.4339599609375,34.7662353515625,-164.68505859375
1758179747.990708,-0.57421875,0.0146484375,0.81787109375,0.30517578125,-1.40380859375,-0.244140625,0.4339599609375,34.7552490234375,-164.6905517578125
1758179748.0004725,-0.580078125,0.005859375,0.82861328125,-0.67138671875,-1.03759765625,0.0,0.428466796875,34.7442626953125,-164.6905517578125
1758179748.0106888,-0.580078125,0.005859375,0.82861328125,-0.67138671875,-1.03759765625,0.0,0.4229736328125,34.73876953125,-164.6905517578125
1758179748.0208852,-0.576171875,0.001953125,0.80615234375,0.0,-0.79345703125,0.0,0.4229736328125,34.7332763671875,-164.6905517578125
1758179748.030494,-0.576171875,0.001953125,0.80615234375,0.0,-0.79345703125,0.0,0.4229736328125,34.727783203125,-164.6905517578125
1758179748.040579,-0.57421875,-0.00146484375,0.82177734375,0.9765625,-0.79345703125,0.1220703125,0.4339599609375,34.727783203125,-164.6905517578125
1758179748.0509753,-0.57421875,-0.00146484375,0.82177734375,0.9765625,-0.79345703125,0.1220703125,0.4449462890625,34.7222900390625,-164.6905517578125
1758179748.060642,-0.57421875,-0.00146484375,0.82177734375,1.220703125,-0.6103515625,0.1220703125,0.4559326171875,34.716796875,-164.6905517578125
1758179748.070625,-0.568359375,0.00634765625,0.8251953125,1.220703125,-0.6103515625,0.1220703125,0.4669189453125,34.7113037109375,-164.6905517578125
1758179748.080547,-0.5693359375,0.0126953125,0.82177734375,2.25830078125,-0.67138671875,0.18310546875,0.494384765625,34.7113037109375,-164.68505859375
1758179748.0908973,-0.5693359375,0.0126953125,0.82177734375,2.25830078125,-0.67138671875,0.18310546875,0.516357421875,34.705810546875,-164.68505859375
1758179748.1005747,-0.5693359375,0.0126953125,0.822265625,0.0,-0.8544921875,0.30517578125,0.516357421875,34.7003173828125,-164.68505859375
1758179748.1105804,-0.5693359375,0.0126953125,0.822265625,0.0,-0.8544921875,0.30517578125,0.5218505859375,34.6893310546875,-164.68505859375
1758179748.12099,-0.56982421875,0.01513671875,0.8125,-1.40380859375,-1.03759765625,0.48828125,0.5108642578125,34.683837890625,-164.6795654296875
1758179748.130618,-0.572265625,0.005859375,0.83251953125,-1.28173828125,-0.91552734375,0.6103515625,0.4998779296875,34.6728515625,-164.674072265625
1758179748.1408465,-0.572265625,0.005859375,0.83251953125,-1.28173828125,-0.91552734375,0.6103515625,0.494384765625,34.6673583984375,-164.6630859375
1758179748.1509557,-0.56884765625,0.00439453125,0.8203125,-0.79345703125,-0.8544921875,0.6103515625,0.4888916015625,34.661865234375,-164.6575927734375
1758179748.1606667,-0.56884765625,0.00439453125,0.8203125,-0.79345703125,-0.8544921875,0.6103515625,0.4833984375,34.65087890625,-164.652099609375
1758179748.1706736,-0.5693359375,0.0068359375,0.8154296875,0.48828125,-0.9765625,0.67138671875,0.4888916015625,34.6453857421875,-164.6466064453125
1758179748.1806748,-0.5693359375,0.0068359375,0.8154296875,0.48828125,-0.9765625,0.67138671875,0.494384765625,34.6343994140625,-164.64111328125
1758179748.1908498,-0.56982421875,0.01025390625,0.82373046875,-1.8310546875,-1.220703125,0.91552734375,0.494384765625,34.62890625,-164.630126953125
1758179748.2007213,-0.56982421875,0.01025390625,0.82373046875,-1.8310546875,-1.220703125,0.91552734375,0.4833984375,34.617919921875,-164.619140625
1758179748.2109294,-0.56689453125,0.0126953125,0.8193359375,-2.74658203125,-1.3427734375,0.9765625,0.4669189453125,34.6014404296875,-164.6136474609375
1758179748.2211182,-0.56689453125,0.0126953125,0.8193359375,-2.74658203125,-1.3427734375,0.9765625,0.450439453125,34.5904541015625,-164.6026611328125
1758179748.2307396,-0.56396484375,0.0048828125,0.82421875,-1.0986328125,-1.40380859375,0.91552734375,0.4339599609375,34.5794677734375,-164.5916748046875
1758179748.2410688,-0.56396484375,0.0048828125,0.82421875,-1.0986328125,-1.40380859375,0.91552734375,0.4339599609375,34.5684814453125,-164.5806884765625
1758179748.2511272,-0.56396484375,0.0048828125,0.830078125,-0.6103515625,-1.46484375,0.54931640625,0.428466796875,34.552001953125,-164.5751953125
1758179748.2607872,-0.56396484375,0.0048828125,0.830078125,-0.6103515625,-1.46484375,0.54931640625,0.428466796875,34.541015625,-164.5697021484375
1758179748.2707505,-0.556640625,0.01123046875,0.82373046875,-0.91552734375,-1.64794921875,0.18310546875,0.4229736328125,34.5245361328125,-164.564208984375
1758179748.2807617,-0.556640625,0.01123046875,0.82373046875,-0.91552734375,-1.64794921875,0.18310546875,0.41748046875,34.508056640625,-164.564208984375
1758179748.2910268,-0.55712890625,0.03076171875,0.8203125,-2.0751953125,-1.89208984375,0.1220703125,0.4010009765625,34.4915771484375,-164.564208984375
1758179748.3007681,-0.55712890625,0.03076171875,0.8203125,-2.0751953125,-1.89208984375,0.1220703125,0.384521484375,34.4696044921875,-164.564208984375
1758179748.3107755,-0.55810546875,0.0166015625,0.84716796875,-1.77001953125,-1.5869140625,-0.3662109375,0.3680419921875,34.453125,-164.5697021484375
1758179748.3211668,-0.55810546875,0.0166015625,0.84716796875,-1.77001953125,-1.5869140625,-0.3662109375,0.3515625,34.4366455078125,-164.5751953125
1758179748.330862,-0.5390625,0.0,0.837890625,-2.25830078125,-1.46484375,-0.67138671875,0.32958984375,34.420166015625,-164.5806884765625
1758179748.3408692,-0.5390625,0.0,0.837890625,-2.25830078125,-1.46484375,-0.67138671875,0.3076171875,34.4036865234375,-164.5916748046875
1758179748.3512456,-0.544921875,0.00146484375,0.83740234375,-2.0751953125,-1.46484375,-1.03759765625,0.2801513671875,34.38720703125,-164.6026611328125
1758179748.3608842,-0.544921875,0.00146484375,0.83740234375,-2.0751953125,-1.46484375,-1.03759765625,0.2581787109375,34.3707275390625,-164.6136474609375
1758179748.3708563,-0.5517578125,0.0078125,0.841796875,-1.708984375,-1.15966796875,-1.15966796875,0.230712890625,34.354248046875,-164.630126953125
1758179748.3813767,-0.5517578125,0.0078125,0.841796875,-1.708984375,-1.15966796875,-1.15966796875,0.208740234375,34.3377685546875,-164.6466064453125
1758179748.391112,-0.55615234375,0.0087890625,0.82177734375,-3.11279296875,-1.0986328125,-1.3427734375,0.1812744140625,34.3212890625,-164.6630859375
1758179748.4009137,-0.55615234375,0.0087890625,0.82177734375,-3.11279296875,-1.0986328125,-1.3427734375,0.142822265625,34.310302734375,-164.6795654296875
1758179748.4108822,-0.56201171875,0.00732421875,0.83251953125,-2.3193359375,-1.0986328125,-1.5869140625,0.10986328125,34.2938232421875,-164.7015380859375
1758179748.4218526,-0.56201171875,0.00732421875,0.83251953125,-2.3193359375,-1.0986328125,-1.5869140625,0.076904296875,34.27734375,-164.718017578125
1758179748.430868,-0.5595703125,-0.0048828125,0.82470703125,0.0,-1.0986328125,-1.77001953125,0.054931640625,34.266357421875,-164.739990234375
1758179748.440956,-0.5595703125,-0.0048828125,0.82470703125,0.0,-1.0986328125,-1.77001953125,0.0494384765625,34.25537109375,-164.761962890625
1758179748.451351,-0.5576171875,0.0009765625,0.82080078125,0.244140625,-1.0986328125,-1.77001953125,0.0384521484375,34.2388916015625,-164.783935546875
1758179748.4609876,-0.5576171875,0.0009765625,0.82080078125,0.244140625,-1.0986328125,-1.77001953125,0.032958984375,34.2279052734375,-164.805908203125
1758179748.4710064,-0.56591796875,0.00634765625,0.83349609375,0.79345703125,-1.15966796875,-1.77001953125,0.0274658203125,34.21142578125,-164.8333740234375
1758179748.4809186,-0.56591796875,0.00634765625,0.83349609375,0.79345703125,-1.15966796875,-1.77001953125,0.02197265625,34.200439453125,-164.8553466796875
1758179748.4924762,-0.5673828125,-0.00390625,0.826171875,-2.685546875,-1.220703125,-1.40380859375,0.0054931640625,34.189453125,-164.871826171875
1758179748.5010147,-0.5673828125,-0.00390625,0.826171875,-2.685546875,-1.220703125,-1.40380859375,-0.02197265625,34.1729736328125,-164.8883056640625
1758179748.5109847,-0.5673828125,-0.00732421875,0.8125,-1.5869140625,-1.28173828125,-1.220703125,-0.0494384765625,34.1619873046875,-164.90478515625
1758179748.521561,-0.5673828125,-0.00732421875,0.8125,-1.5869140625,-1.28173828125,-1.220703125,-0.076904296875,34.1510009765625,-164.9212646484375
1758179748.5310123,-0.576171875,-0.0185546875,0.8359375,2.9296875,-0.79345703125,-1.3427734375,-0.076904296875,34.1400146484375,-164.937744140625
1758179748.5410936,-0.576171875,-0.0185546875,0.8359375,2.9296875,-0.79345703125,-1.3427734375,-0.054931640625,34.134521484375,-164.9542236328125
1758179748.5513597,-0.576171875,-0.0185546875,0.8359375,4.82177734375,-0.3662109375,-1.15966796875,-0.0274658203125,34.1290283203125,-164.970703125
1758179748.562303,-0.5771484375,-0.0126953125,0.81201171875,4.82177734375,-0.3662109375,-1.15966796875,0.0054931640625,34.12353515625,-164.9871826171875
1758179748.571004,-0.57763671875,0.001953125,0.8154296875,4.33349609375,-0.30517578125,-0.8544921875,0.0439453125,34.12353515625,-165.003662109375
1758179748.5811293,-0.57763671875,0.001953125,0.8154296875,4.33349609375,-0.30517578125,-0.8544921875,0.0823974609375,34.12353515625,-165.0146484375
1758179748.5914392,-0.57763671875,0.015625,0.8134765625,1.77001953125,-0.30517578125,-0.48828125,0.1043701171875,34.12353515625,-165.025634765625
1758179748.6011353,-0.57763671875,0.015625,0.8134765625,1.77001953125,-0.30517578125,-0.48828125,0.1153564453125,34.12353515625,-165.0311279296875
1758179748.6110997,-0.578125,0.01220703125,0.82421875,0.18310546875,0.0,-0.06103515625,0.1263427734375,34.1290283203125,-165.03662109375
1758179748.6215894,-0.578125,0.01220703125,0.82421875,0.18310546875,0.0,-0.06103515625,0.1263427734375,34.134521484375,-165.03662109375
1758179748.6311152,-0.57666015625,-0.00439453125,0.81494140625,0.0,0.30517578125,-0.06103515625,0.1263427734375,34.1400146484375,-165.03662109375
1758179748.641184,-0.57666015625,-0.00439453125,0.81494140625,0.0,0.30517578125,-0.06103515625,0.1263427734375,34.1455078125,-165.03662109375
1758179748.6515896,-0.5771484375,-0.00390625,0.822265625,1.708984375,0.6103515625,-0.3662109375,0.1318359375,34.156494140625,-165.0421142578125
1758179748.661224,-0.5771484375,-0.00390625,0.822265625,1.708984375,0.6103515625,-0.3662109375,0.1483154296875,34.16748046875,-165.047607421875
1758179748.671156,-0.5673828125,0.005859375,0.81640625,2.197265625,0.732421875,-0.42724609375,0.164794921875,34.178466796875,-165.0531005859375
1758179748.681119,-0.5673828125,0.005859375,0.81640625,2.197265625,0.732421875,-0.42724609375,0.1812744140625,34.189453125,-165.05859375
1758179748.6914387,-0.56103515625,0.01123046875,0.83203125,-0.67138671875,0.732421875,-0.1220703125,0.186767578125,34.200439453125,-165.05859375
1758179748.7012057,-0.56103515625,0.01123046875,0.83203125,-0.67138671875,0.732421875,-0.1220703125,0.1812744140625,34.21142578125,-165.0640869140625
1758179748.7111742,-0.560546875,0.01123046875,0.8310546875,-2.86865234375,0.91552734375,0.06103515625,0.164794921875,34.222412109375,-165.0640869140625
1758179748.7218237,-0.560546875,0.01123046875,0.8310546875,-2.86865234375,0.91552734375,0.06103515625,0.1373291015625,34.2333984375,-165.0640869140625
1758179748.7312453,-0.56298828125,-0.00146484375,0.82470703125,-1.77001953125,1.0986328125,0.06103515625,0.1153564453125,34.244384765625,-165.0640869140625
1758179748.7415426,-0.56298828125,-0.00146484375,0.82470703125,-1.77001953125,1.0986328125,0.06103515625,0.098876953125,34.2608642578125,-165.0640869140625
1758179748.7520034,-0.55810546875,-0.00439453125,0.8232421875,0.48828125,0.79345703125,-0.18310546875,0.0933837890625,34.2718505859375,-165.0640869140625
1758179748.7614913,-0.55810546875,-0.00439453125,0.8232421875,0.48828125,0.79345703125,-0.18310546875,0.0933837890625,34.27734375,-165.0640869140625
1758179748.7713003,-0.5478515625,0.00048828125,0.8271484375,-0.67138671875,0.3662109375,-0.1220703125,0.0933837890625,34.288330078125,-165.069580078125
1758179748.7812576,-0.5478515625,0.00048828125,0.8271484375,-0.67138671875,0.3662109375,-0.1220703125,0.087890625,34.288330078125,-165.0750732421875
1758179748.7928214,-0.55126953125,0.0087890625,0.8466796875,-2.0751953125,0.42724609375,-0.1220703125,0.0714111328125,34.2938232421875,-165.0750732421875
1758179748.8013222,-0.55126953125,0.0087890625,0.8466796875,-2.0751953125,0.42724609375,-0.1220703125,0.0494384765625,34.29931640625,-165.08056640625
1758179748.811514,-0.54638671875,0.013671875,0.83056640625,1.5869140625,0.8544921875,0.0,0.0494384765625,34.3048095703125,-165.08056640625
1758179748.8218722,-0.54638671875,0.013671875,0.83056640625,1.5869140625,0.8544921875,0.0,0.06591796875,34.310302734375,-165.08056640625
1758179748.8313055,-0.560546875,-0.00390625,0.82421875,3.47900390625,0.244140625,-0.18310546875,0.0933837890625,34.310302734375,-165.0860595703125
1758179748.8416173,-0.560546875,-0.00390625,0.82421875,3.47900390625,0.244140625,-0.18310546875,0.1263427734375,34.310302734375,-165.091552734375
1758179748.8516793,-0.5634765625,-0.0029296875,0.8212890625,-3.0517578125,-0.244140625,0.0,0.1318359375,34.310302734375,-165.091552734375
1758179748.8613741,-0.5634765625,-0.0029296875,0.8212890625,-3.0517578125,-0.244140625,0.0,0.098876953125,34.3048095703125,-165.091552734375
1758179748.871424,-0.55810546875,0.00927734375,0.826171875,-2.5634765625,-0.42724609375,0.06103515625,0.0714111328125,34.29931640625,-165.0970458984375
1758179748.8813455,-0.55810546875,0.00927734375,0.826171875,-2.5634765625,-0.42724609375,0.06103515625,0.0494384765625,34.2938232421875,-165.0970458984375
1758179748.8917744,-0.55419921875,-0.0029296875,0.845703125,0.244140625,-0.3662109375,-0.1220703125,0.0384521484375,34.288330078125,-165.0970458984375
1758179748.9015338,-0.55419921875,-0.0029296875,0.845703125,0.244140625,-0.3662109375,-0.1220703125,0.0384521484375,34.2828369140625,-165.1025390625
1758179748.9115176,-0.55859375,-0.0029296875,0.8251953125,0.79345703125,-0.48828125,-0.244140625,0.0439453125,34.27734375,-165.1080322265625
1758179748.9215035,-0.55859375,-0.0029296875,0.8251953125,0.79345703125,-0.48828125,-0.244140625,0.0494384765625,34.2718505859375,-165.113525390625
1758179748.9315507,-0.56884765625,0.00146484375,0.8134765625,0.6103515625,-0.79345703125,-0.244140625,0.054931640625,34.2608642578125,-165.1190185546875
1758179748.9414973,-0.56884765625,0.00146484375,0.8134765625,0.6103515625,-0.79345703125,-0.244140625,0.0604248046875,34.25537109375,-165.12451171875
1758179748.9517648,-0.56640625,0.0068359375,0.8154296875,-0.06103515625,-1.220703125,-0.244140625,0.0604248046875,34.244384765625,-165.1300048828125
1758179748.9622917,-0.56640625,0.0068359375,0.8154296875,-0.06103515625,-1.220703125,-0.244140625,0.0604248046875,34.2333984375,-165.1300048828125
1758179748.971531,-0.5615234375,0.0068359375,0.82958984375,-0.30517578125,-1.40380859375,-0.244140625,0.0604248046875,34.2169189453125,-165.135498046875
1758179748.9815567,-0.5615234375,0.0068359375,0.82958984375,-0.30517578125,-1.40380859375,-0.244140625,0.054931640625,34.2059326171875,-165.1409912109375
1758179748.9916513,-0.546875,0.00048828125,0.83544921875,0.42724609375,-1.46484375,-0.3662109375,0.054931640625,34.189453125,-165.146484375
1758179749.0015352,-0.546875,0.00048828125,0.83544921875,0.42724609375,-1.46484375,-0.3662109375,0.054931640625,34.1729736328125,-165.1519775390625
1758179749.0115278,-0.5517578125,-0.0029296875,0.83935546875,0.06103515625,-1.3427734375,-0.244140625,0.054931640625,34.1619873046875,-165.157470703125
1758179749.0216825,-0.5517578125,-0.0029296875,0.83935546875,0.06103515625,-1.3427734375,-0.244140625,0.054931640625,34.1455078125,-165.1629638671875
1758179749.031585,-0.5595703125,0.0,0.82421875,-1.77001953125,-1.3427734375,-0.06103515625,0.0494384765625,34.1290283203125,-165.16845703125
1758179749.0415776,-0.5595703125,0.0,0.82421875,-1.77001953125,-1.3427734375,-0.06103515625,0.0274658203125,34.1180419921875,-165.16845703125
1758179749.0517552,-0.56201171875,0.001953125,0.82421875,-0.9765625,-1.3427734375,-0.06103515625,0.0164794921875,34.1015625,-165.16845703125
1758179749.061932,-0.56201171875,0.001953125,0.82421875,-0.9765625,-1.3427734375,-0.06103515625,0.0054931640625,34.0850830078125,-165.1739501953125
1758179749.0715823,-0.55810546875,0.0,0.83203125,1.220703125,-1.3427734375,-0.244140625,0.0054931640625,34.0740966796875,-165.179443359375
1758179749.0819192,-0.55810546875,0.0,0.83203125,1.220703125,-1.3427734375,-0.244140625,0.0164794921875,34.0576171875,-165.179443359375
1758179749.09184,-0.5498046875,0.0,0.82861328125,1.708984375,-1.46484375,-0.244140625,0.032958984375,34.046630859375,-165.1849365234375
1758179749.1016288,-0.5498046875,0.0,0.82861328125,1.708984375,-1.46484375,-0.244140625,0.0494384765625,34.0301513671875,-165.1904296875
1758179749.1115568,-0.55126953125,0.005859375,0.83935546875,-0.79345703125,-1.46484375,0.0,0.0494384765625,34.013671875,-165.1959228515625
1758179749.121754,-0.55126953125,0.005859375,0.83935546875,-0.79345703125,-1.46484375,0.0,0.0439453125,33.9971923828125,-165.1959228515625
1758179749.1316938,-0.541015625,0.02880859375,0.82470703125,-0.9765625,-1.40380859375,0.48828125,0.0384521484375,33.9862060546875,-165.1959228515625
1758179749.1417105,-0.541015625,0.02880859375,0.82470703125,-0.9765625,-1.40380859375,0.48828125,0.032958984375,33.9697265625,-165.1904296875
1758179749.1519504,-0.55419921875,-0.00439453125,0.86279296875,-3.35693359375,-1.46484375,0.54931640625,0.0164794921875,33.9532470703125,-165.1849365234375
1758179749.1619985,-0.55419921875,-0.00439453125,0.86279296875,-3.35693359375,-1.46484375,0.54931640625,-0.0054931640625,33.936767578125,-165.179443359375
1758179749.1717277,-0.54638671875,-0.00927734375,0.82470703125,-2.74658203125,-1.28173828125,0.244140625,-0.032958984375,33.9202880859375,-165.1739501953125
1758179749.1819408,-0.54638671875,-0.00927734375,0.82470703125,-2.74658203125,-1.28173828125,0.244140625,-0.054931640625,33.90380859375,-165.1739501953125
1758179749.1921127,-0.5439453125,-0.02734375,0.8310546875,1.953125,-1.5869140625,0.30517578125,-0.054931640625,33.8873291015625,-165.1739501953125
1758179749.2017446,-0.5439453125,-0.02734375,0.8310546875,1.953125,-1.5869140625,0.30517578125,-0.032958984375,33.870849609375,-165.1739501953125
1758179749.2119653,-0.5419921875,-0.00732421875,0.84814453125,0.18310546875,-1.46484375,0.54931640625,-0.032958984375,33.848876953125,-165.1739501953125
1758179749.2219725,-0.5419921875,-0.00732421875,0.84814453125,0.18310546875,-1.46484375,0.54931640625,-0.0274658203125,33.8323974609375,-165.16845703125
1758179749.2317653,-0.53857421875,0.00830078125,0.8427734375,-1.0986328125,-1.46484375,0.732421875,-0.032958984375,33.81591796875,-165.1629638671875
1758179749.2418213,-0.53857421875,0.00830078125,0.8427734375,-1.0986328125,-1.46484375,0.732421875,-0.0384521484375,33.7994384765625,-165.157470703125
1758179749.2521472,-0.5458984375,0.009765625,0.8359375,-1.8310546875,-1.40380859375,0.8544921875,-0.0494384765625,33.7774658203125,-165.1519775390625
1758179749.261865,-0.5458984375,0.009765625,0.8359375,-1.8310546875,-1.40380859375,0.8544921875,-0.06591796875,33.760986328125,-165.146484375
1758179749.2718244,-0.54736328125,0.0009765625,0.83544921875,-2.0751953125,-1.46484375,0.91552734375,-0.076904296875,33.7445068359375,-165.135498046875
1758179749.2818658,-0.54736328125,0.0009765625,0.83544921875,-2.0751953125,-1.46484375,0.91552734375,-0.0933837890625,33.72802734375,-165.1300048828125
1758179749.2920017,-0.54638671875,-0.00390625,0.83642578125,-0.48828125,-1.46484375,0.67138671875,-0.087890625,33.7060546875,-165.12451171875
1758179749.3018358,-0.54638671875,-0.00390625,0.83642578125,-0.48828125,-1.46484375,0.67138671875,-0.087890625,33.6895751953125,-165.113525390625
1758179749.3118474,-0.546875,-0.005859375,0.8359375,0.54931640625,-1.52587890625,0.48828125,-0.0823974609375,33.673095703125,-165.113525390625
1758179749.3220978,-0.546875,-0.005859375,0.8359375,0.54931640625,-1.52587890625,0.48828125,-0.0714111328125,33.651123046875,-165.1080322265625
1758179749.3318865,-0.55224609375,0.00146484375,0.83203125,-1.0986328125,-1.5869140625,0.42724609375,-0.0823974609375,33.6346435546875,-165.1080322265625
1758179749.341939,-0.55224609375,0.00146484375,0.83203125,-1.0986328125,-1.5869140625,0.42724609375,-0.087890625,33.6181640625,-165.1025390625
1758179749.3520145,-0.55322265625,0.009765625,0.83154296875,-1.89208984375,-1.64794921875,0.3662109375,-0.1043701171875,33.59619140625,-165.0970458984375
1758179749.3673644,-0.55322265625,0.009765625,0.83154296875,-1.89208984375,-1.64794921875,0.3662109375,-0.120849609375,33.5797119140625,-165.0970458984375
1758179749.3746555,-0.55712890625,0.0087890625,0.83251953125,-1.46484375,-1.77001953125,0.30517578125,-0.1318359375,33.563232421875,-165.091552734375
1758179749.3820236,-0.55712890625,0.0087890625,0.83251953125,-1.46484375,-1.77001953125,0.30517578125,-0.142822265625,33.541259765625,-165.091552734375
1758179749.3921854,-0.56005859375,0.00048828125,0.82861328125,-0.30517578125,-1.708984375,0.18310546875,-0.142822265625,33.5247802734375,-165.0860595703125
1758179749.4020286,-0.56005859375,0.00048828125,0.82861328125,-0.30517578125,-1.708984375,0.18310546875,-0.142822265625,33.50830078125,-165.0860595703125
1758179749.4119673,-0.56396484375,-0.00390625,0.82421875,-1.52587890625,-1.708984375,0.3662109375,-0.15380859375,33.4918212890625,-165.08056640625
1758179749.4222512,-0.56396484375,-0.00390625,0.82421875,-1.52587890625,-1.708984375,0.3662109375,-0.164794921875,33.475341796875,-165.0750732421875
1758179749.4320598,-0.56884765625,0.00146484375,0.82421875,-1.89208984375,-1.708984375,0.30517578125,-0.17578125,33.4588623046875,-165.0750732421875
1758179749.442054,-0.56884765625,0.00146484375,0.82421875,-1.89208984375,-1.708984375,0.30517578125,-0.1922607421875,33.4478759765625,-165.069580078125
1758179749.4521008,-0.5615234375,0.00146484375,0.8271484375,-2.50244140625,-1.64794921875,0.48828125,-0.2142333984375,33.431396484375,-165.0640869140625
1758179749.4641213,-0.5615234375,0.00146484375,0.8271484375,-2.50244140625,-1.64794921875,0.48828125,-0.230712890625,33.42041015625,-165.05859375
1758179749.4720745,-0.56640625,-0.001953125,0.8212890625,-3.662109375,-1.64794921875,0.48828125,-0.263671875,33.4039306640625,-165.0531005859375
1758179749.4821506,-0.56640625,-0.001953125,0.8212890625,-3.662109375,-1.64794921875,0.48828125,-0.296630859375,33.3929443359375,-165.0421142578125
1758179749.4921672,-0.56640625,-0.0029296875,0.82958984375,-3.0517578125,-1.5869140625,0.42724609375,-0.3240966796875,33.3819580078125,-165.03662109375
1758179749.5021348,-0.56640625,-0.0029296875,0.82958984375,-3.0517578125,-1.5869140625,0.42724609375,-0.3460693359375,33.3709716796875,-165.0311279296875
1758179749.5120718,-0.57080078125,-0.0078125,0.82568359375,-2.0751953125,-1.220703125,0.3662109375,-0.362548828125,33.3599853515625,-165.025634765625
1758179749.5223851,-0.57080078125,-0.0078125,0.82568359375,-2.0751953125,-1.220703125,0.3662109375,-0.3790283203125,33.3544921875,-165.0201416015625
1758179749.5321178,-0.5673828125,-0.00537109375,0.81689453125,-1.77001953125,-1.15966796875,0.30517578125,-0.3955078125,33.3489990234375,-165.0146484375
1758179749.5421853,-0.5673828125,-0.00537109375,0.81689453125,-1.77001953125,-1.15966796875,0.30517578125,-0.406494140625,33.343505859375,-165.0146484375
1758179749.5522397,-0.56201171875,0.0,0.8291015625,-2.25830078125,-1.220703125,0.30517578125,-0.428466796875,33.3380126953125,-165.0091552734375
1758179749.562177,-0.56201171875,0.0,0.8291015625,-2.25830078125,-1.220703125,0.30517578125,-0.4449462890625,33.3270263671875,-165.003662109375
1758179749.5721622,-0.5654296875,0.0009765625,0.83251953125,-3.0517578125,-1.03759765625,0.30517578125,-0.472412109375,33.3270263671875,-164.9981689453125
1758179749.5822365,-0.5654296875,0.0009765625,0.83251953125,-3.0517578125,-1.03759765625,0.30517578125,-0.4998779296875,33.321533203125,-164.99267578125
1758179749.592227,-0.56591796875,-0.00439453125,0.8212890625,-1.708984375,-0.8544921875,0.18310546875,-0.5108642578125,33.3160400390625,-164.9871826171875
1758179749.6021724,-0.56591796875,-0.00439453125,0.8212890625,-1.708984375,-0.8544921875,0.18310546875,-0.52734375,33.3160400390625,-164.981689453125
1758179749.61214,-0.564453125,-0.0068359375,0.822265625,-1.52587890625,-0.67138671875,0.18310546875,-0.538330078125,33.3160400390625,-164.981689453125
1758179749.6224527,-0.564453125,-0.0068359375,0.822265625,-1.52587890625,-0.67138671875,0.18310546875,-0.54931640625,33.3160400390625,-164.9761962890625
1758179749.6322212,-0.55810546875,-0.0087890625,0.8388671875,-3.96728515625,-0.67138671875,0.18310546875,-0.582275390625,33.310546875,-164.970703125
1758179749.642264,-0.55810546875,-0.0087890625,0.8388671875,-3.96728515625,-0.67138671875,0.18310546875,-0.6207275390625,33.310546875,-164.9652099609375
1758179749.6523185,-0.55322265625,-0.0068359375,0.830078125,-3.11279296875,-0.48828125,0.06103515625,-0.648193359375,33.310546875,-164.9652099609375
1758179749.6622846,-0.55322265625,-0.0068359375,0.830078125,-3.11279296875,-0.48828125,0.06103515625,-0.6756591796875,33.310546875,-164.9652099609375
1758179749.6722574,-0.55419921875,-0.013671875,0.8330078125,-1.52587890625,-0.42724609375,0.0,-0.692138671875,33.310546875,-164.9652099609375
1758179749.6822577,-0.55419921875,-0.013671875,0.8330078125,-1.52587890625,-0.42724609375,0.0,-0.703125,33.310546875,-164.9652099609375
1758179749.6941378,-0.552734375,-0.0107421875,0.8349609375,-2.25830078125,-0.244140625,0.0,-0.72509765625,33.3160400390625,-164.959716796875
1758179749.7023032,-0.552734375,-0.0107421875,0.8349609375,-2.25830078125,-0.244140625,0.0,-0.7470703125,33.3160400390625,-164.959716796875
1758179749.7126637,-0.5478515625,-0.00732421875,0.8369140625,-2.99072265625,-0.1220703125,-0.06103515625,-0.7745361328125,33.3160400390625,-164.959716796875
1758179749.722618,-0.5478515625,-0.00732421875,0.8369140625,-2.99072265625,-0.1220703125,-0.06103515625,-0.802001953125,33.321533203125,-164.959716796875
1758179749.7322857,-0.54052734375,-0.0078125,0.837890625,-2.685546875,-0.1220703125,-0.1220703125,-0.8294677734375,33.321533203125,-164.9652099609375
1758179749.742396,-0.54052734375,-0.0078125,0.837890625,-2.685546875,-0.1220703125,-0.1220703125,-0.85693359375,33.321533203125,-164.9652099609375
1758179749.7523494,-0.54248046875,-0.01123046875,0.8427734375,-3.173828125,-0.18310546875,-0.18310546875,-0.8843994140625,33.321533203125,-164.9652099609375
1758179749.7624776,-0.54248046875,-0.01123046875,0.8427734375,-3.173828125,-0.18310546875,-0.18310546875,-0.9173583984375,33.321533203125,-164.970703125
1758179749.7723598,-0.54345703125,-0.013671875,0.83642578125,-2.01416015625,-0.1220703125,-0.42724609375,-0.9393310546875,33.3160400390625,-164.9761962890625
1758179749.7825248,-0.54345703125,-0.013671875,0.83642578125,-2.01416015625,-0.1220703125,-0.42724609375,-0.955810546875,33.3160400390625,-164.9761962890625
1758179749.7926323,-0.54150390625,-0.0126953125,0.83251953125,-1.52587890625,-0.06103515625,-0.3662109375,-0.9722900390625,33.3160400390625,-164.981689453125
1758179749.8024912,-0.54150390625,-0.0126953125,0.83251953125,-1.52587890625,-0.06103515625,-0.3662109375,-0.98876953125,33.3160400390625,-164.9871826171875
1758179749.81244,-0.53857421875,-0.01318359375,0.845703125,-2.3193359375,-0.244140625,-0.3662109375,-1.0107421875,33.3160400390625,-164.99267578125
1758179749.8229368,-0.53857421875,-0.01318359375,0.845703125,-2.3193359375,-0.244140625,-0.3662109375,-1.0382080078125,33.310546875,-164.9981689453125
1758179749.8324723,-0.53857421875,-0.01171875,0.84423828125,-2.62451171875,-0.3662109375,-0.6103515625,-1.065673828125,33.3050537109375,-165.003662109375
1758179749.8424704,-0.53857421875,-0.01171875,0.84423828125,-2.62451171875,-0.3662109375,-0.6103515625,-1.0931396484375,33.299560546875,-165.0146484375
1758179749.8525195,-0.5341796875,-0.01806640625,0.83642578125,-1.15966796875,-0.6103515625,-0.6103515625,-1.1041259765625,33.2940673828125,-165.0201416015625
1758179749.8624618,-0.5341796875,-0.01806640625,0.83642578125,-1.15966796875,-0.6103515625,-0.6103515625,-1.12060546875,33.2830810546875,-165.0311279296875
1758179749.8724763,-0.53466796875,-0.0244140625,0.84765625,-1.8310546875,-0.54931640625,-0.67138671875,-1.142578125,33.277587890625,-165.03662109375
1758179749.882536,-0.53466796875,-0.0244140625,0.84765625,-1.8310546875,-0.54931640625,-0.67138671875,-1.16455078125,33.2666015625,-165.047607421875
1758179749.8926308,-0.54296875,-0.01708984375,0.837890625,-1.953125,-0.67138671875,-0.6103515625,-1.1865234375,33.2611083984375,-165.05859375
1758179749.902517,-0.54296875,-0.01708984375,0.837890625,-1.953125,-0.67138671875,-0.6103515625,-1.20849609375,33.2501220703125,-165.069580078125
1758179749.9125054,-0.54541015625,-0.01904296875,0.8271484375,-1.0986328125,-0.79345703125,-0.48828125,-1.219482421875,33.2391357421875,-165.0750732421875
1758179749.922676,-0.54541015625,-0.01904296875,0.8271484375,-1.0986328125,-0.79345703125,-0.48828125,-1.23046875,33.2281494140625,-165.08056640625
1758179749.9326801,-0.54345703125,-0.0185546875,0.837890625,-2.44140625,-1.03759765625,-0.3662109375,-1.2579345703125,33.2171630859375,-165.0860595703125
1758179749.9429214,-0.54345703125,-0.0185546875,0.837890625,-2.44140625,-1.03759765625,-0.3662109375,-1.285400390625,33.2061767578125,-165.091552734375
1758179749.9526408,-0.541015625,-0.015625,0.8388671875,-2.86865234375,-1.03759765625,-0.244140625,-1.3128662109375,33.1951904296875,-165.0970458984375
1758179749.9625938,-0.541015625,-0.015625,0.8388671875,-2.86865234375,-1.03759765625,-0.244140625,-1.34033203125,33.1787109375,-165.0970458984375
1758179749.9726715,-0.5419921875,-0.025390625,0.84130859375,-0.9765625,-1.220703125,-0.30517578125,-1.351318359375,33.167724609375,-165.1025390625
1758179749.9826927,-0.5419921875,-0.025390625,0.84130859375,-0.9765625,-1.220703125,-0.30517578125,-1.3623046875,33.1512451171875,-165.1080322265625
1758179749.9927075,-0.5419921875,-0.02734375,0.8369140625,0.6103515625,-1.220703125,-0.3662109375,-1.3568115234375,33.1402587890625,-165.113525390625
1758179750.002624,-0.5419921875,-0.02734375,0.8369140625,0.6103515625,-1.220703125,-0.3662109375,-1.351318359375,33.123779296875,-165.1190185546875
1758179750.0126424,-0.5419921875,-0.02734375,0.8369140625,1.5869140625,-0.9765625,-0.54931640625,-1.34033203125,33.11279296875,-165.1300048828125
1758179750.0228262,-0.5400390625,-0.02734375,0.83984375,1.5869140625,-0.9765625,-0.54931640625,-1.329345703125,33.101806640625,-165.135498046875
1758179750.0326555,-0.5361328125,-0.01611328125,0.8447265625,1.64794921875,-0.732421875,-0.67138671875,-1.318359375,33.0963134765625,-165.146484375
1758179750.0426905,-0.5361328125,-0.01611328125,0.8447265625,1.64794921875,-0.732421875,-0.67138671875,-1.307373046875,33.0853271484375,-165.157470703125
1758179750.0527365,-0.5322265625,-0.009765625,0.85107421875,1.708984375,-0.48828125,-0.79345703125,-1.29638671875,33.079833984375,-165.16845703125
1758179750.0626714,-0.5322265625,-0.009765625,0.85107421875,1.708984375,-0.48828125,-0.79345703125,-1.2799072265625,33.06884765625,-165.179443359375
1758179750.072708,-0.52685546875,-0.0087890625,0.84716796875,1.46484375,-0.30517578125,-0.91552734375,-1.2744140625,33.0633544921875,-165.1904296875
1758179750.0829508,-0.52685546875,-0.0087890625,0.84716796875,1.46484375,-0.30517578125,-0.91552734375,-1.263427734375,33.057861328125,-165.2069091796875
1758179750.092769,-0.53173828125,-0.01416015625,0.84521484375,2.9296875,-0.244140625,-1.03759765625,-1.241455078125,33.0523681640625,-165.2178955078125
1758179750.1026833,-0.53173828125,-0.01416015625,0.84521484375,2.9296875,-0.244140625,-1.03759765625,-1.2139892578125,33.046875,-165.234375
1758179750.1126761,-0.53466796875,-0.0234375,0.845703125,3.23486328125,-0.18310546875,-1.0986328125,-1.1920166015625,33.0413818359375,-165.2508544921875
1758179750.1227334,-0.53466796875,-0.0234375,0.845703125,3.23486328125,-0.18310546875,-1.0986328125,-1.16455078125,33.035888671875,-165.2618408203125
1758179750.132712,-0.53515625,-0.02099609375,0.841796875,3.5400390625,-0.18310546875,-1.220703125,-1.1370849609375,33.02490234375,-165.2783203125
1758179750.1428723,-0.53515625,-0.02099609375,0.841796875,3.5400390625,-0.18310546875,-1.220703125,-1.109619140625,33.0194091796875,-165.2947998046875
1758179750.1528618,-0.537109375,-0.017578125,0.8369140625,4.45556640625,-0.30517578125,-1.220703125,-1.07666015625,33.013916015625,-165.311279296875
1758179750.1627898,-0.537109375,-0.017578125,0.8369140625,4.45556640625,-0.30517578125,-1.220703125,-1.0382080078125,33.0084228515625,-165.3277587890625
1758179750.1728737,-0.54296875,-0.017578125,0.845703125,4.08935546875,-0.54931640625,-1.3427734375,-1.0107421875,32.9974365234375,-165.3497314453125
1758179750.183183,-0.54296875,-0.017578125,0.845703125,4.08935546875,-0.54931640625,-1.3427734375,-0.977783203125,32.991943359375,-165.3662109375
1758179750.1928444,-0.55078125,-0.01806640625,0.837890625,4.82177734375,-0.42724609375,-1.28173828125,-0.9393310546875,32.9864501953125,-165.38818359375
1758179750.2028508,-0.55078125,-0.01806640625,0.837890625,4.82177734375,-0.42724609375,-1.28173828125,-0.90087890625,32.9754638671875,-165.4046630859375
1758179750.2128346,-0.5478515625,-0.021484375,0.826171875,5.2490234375,-0.54931640625,-1.15966796875,-0.85693359375,32.969970703125,-165.421142578125
1758179750.2229002,-0.5478515625,-0.021484375,0.826171875,5.2490234375,-0.54931640625,-1.15966796875,-0.8184814453125,32.9644775390625,-165.4376220703125
1758179750.2328472,-0.560546875,-0.00927734375,0.83349609375,5.2490234375,-0.54931640625,-1.15966796875,-0.7745361328125,32.958984375,-165.4541015625
1758179750.2431529,-0.560546875,-0.00927734375,0.83349609375,5.2490234375,-0.54931640625,-1.15966796875,-0.7305908203125,32.9534912109375,-165.4705810546875
1758179750.252918,-0.568359375,-0.00537109375,0.84228515625,3.41796875,-0.18310546875,-0.8544921875,-0.703125,32.9534912109375,-165.4815673828125
1758179750.2628467,-0.57275390625,-0.00439453125,0.810546875,2.685546875,0.18310546875,-0.732421875,-0.68115234375,32.9534912109375,-165.4925537109375
1758179750.2729692,-0.57275390625,-0.00439453125,0.810546875,2.685546875,0.18310546875,-0.732421875,-0.6591796875,32.958984375,-165.5035400390625
1758179750.2832742,-0.56884765625,-0.0078125,0.8193359375,2.13623046875,0.06103515625,-0.67138671875,-0.6427001953125,32.9644775390625,-165.509033203125
1758179750.2934372,-0.56884765625,-0.0078125,0.8193359375,2.13623046875,0.06103515625,-0.67138671875,-0.626220703125,32.9644775390625,-165.52001953125
1758179750.302952,-0.5625,0.00244140625,0.82763671875,2.13623046875,0.30517578125,-0.48828125,-0.6097412109375,32.9754638671875,-165.5255126953125
1758179750.312971,-0.5625,0.00244140625,0.82763671875,2.13623046875,0.30517578125,-0.48828125,-0.59326171875,32.98095703125,-165.531005859375
1758179750.3230155,-0.57177734375,-0.009765625,0.82373046875,2.62451171875,0.18310546875,-0.6103515625,-0.5767822265625,32.991943359375,-165.5364990234375
1758179750.332959,-0.57177734375,-0.009765625,0.82373046875,2.62451171875,0.18310546875,-0.6103515625,-0.5548095703125,32.9974365234375,-165.5474853515625
1758179750.3431585,-0.56494140625,-0.009765625,0.822265625,0.48828125,0.0,-0.48828125,-0.5438232421875,33.0029296875,-165.552978515625
1758179750.35319,-0.56494140625,-0.009765625,0.822265625,0.48828125,0.0,-0.48828125,-0.538330078125,33.0084228515625,-165.5584716796875
1758179750.3632035,-0.56494140625,-0.00732421875,0.8193359375,1.28173828125,-0.244140625,-0.54931640625,-0.538330078125,33.013916015625,-165.56396484375
1758179750.3732302,-0.56494140625,-0.00732421875,0.8193359375,1.28173828125,-0.244140625,-0.54931640625,-0.52734375,33.0194091796875,-165.5694580078125
1758179750.383617,-0.56591796875,-0.00439453125,0.83251953125,1.5869140625,-0.244140625,-0.42724609375,-0.516357421875,33.02490234375,-165.574951171875
1758179750.3932636,-0.56591796875,-0.00439453125,0.83251953125,1.5869140625,-0.244140625,-0.42724609375,-0.50537109375,33.0303955078125,-165.5804443359375
1758179750.403265,-0.5556640625,-0.005859375,0.826171875,-0.244140625,-0.1220703125,0.0,-0.4998779296875,33.035888671875,-165.5804443359375
1758179750.4130025,-0.5556640625,-0.005859375,0.826171875,-0.244140625,-0.1220703125,0.0,-0.4998779296875,33.0413818359375,-165.5804443359375
1758179750.423337,-0.55078125,-0.00830078125,0.83837890625,-1.03759765625,-0.06103515625,0.18310546875,-0.50537109375,33.046875,-165.5804443359375
1758179750.4331253,-0.55078125,-0.00830078125,0.83837890625,-1.03759765625,-0.06103515625,0.18310546875,-0.516357421875,33.0523681640625,-165.574951171875
1758179750.4431422,-0.55322265625,-0.01123046875,0.8388671875,0.48828125,0.244140625,0.244140625,-0.516357421875,33.057861328125,-165.574951171875
1758179750.4532242,-0.55322265625,-0.01123046875,0.8388671875,0.48828125,0.244140625,0.244140625,-0.5108642578125,33.0633544921875,-165.5694580078125
1758179750.4631896,-0.5498046875,-0.0146484375,0.83349609375,1.3427734375,0.54931640625,0.42724609375,-0.4998779296875,33.0743408203125,-165.5694580078125
1758179750.4733326,-0.5498046875,-0.0146484375,0.83349609375,1.3427734375,0.54931640625,0.42724609375,-0.4888916015625,33.0853271484375,-165.56396484375
1758179750.4831054,-0.54443359375,-0.00830078125,0.84033203125,0.8544921875,0.79345703125,0.48828125,-0.472412109375,33.0963134765625,-165.5584716796875
1758179750.4935842,-0.54443359375,-0.00830078125,0.84033203125,0.8544921875,0.79345703125,0.48828125,-0.46142578125,33.1072998046875,-165.552978515625
1758179750.5031533,-0.5419921875,-0.0029296875,0.84033203125,0.18310546875,0.91552734375,0.6103515625,-0.4559326171875,33.1182861328125,-165.5474853515625
1758179750.513186,-0.5419921875,-0.0029296875,0.84033203125,0.18310546875,0.91552734375,0.6103515625,-0.450439453125,33.1292724609375,-165.5419921875
1758179750.523367,-0.5419921875,-0.0009765625,0.841796875,-0.1220703125,1.03759765625,0.6103515625,-0.4449462890625,33.1402587890625,-165.5364990234375
1758179750.5332077,-0.5419921875,-0.0009765625,0.841796875,-0.1220703125,1.03759765625,0.6103515625,-0.4449462890625,33.1512451171875,-165.531005859375
1758179750.5432253,-0.5390625,-0.0048828125,0.84716796875,0.9765625,1.28173828125,0.67138671875,-0.4339599609375,33.167724609375,-165.5255126953125
1758179750.5533905,-0.5390625,-0.0048828125,0.84716796875,0.9765625,1.28173828125,0.67138671875,-0.4229736328125,33.1787109375,-165.52001953125
1758179750.5632715,-0.53369140625,-0.01171875,0.8427734375,1.15966796875,1.3427734375,0.8544921875,-0.406494140625,33.189697265625,-165.5145263671875
1758179750.5733204,-0.53369140625,-0.01171875,0.8427734375,1.15966796875,1.3427734375,0.8544921875,-0.3900146484375,33.2061767578125,-165.509033203125
1758179750.5831966,-0.5224609375,-0.0087890625,0.84521484375,0.79345703125,1.0986328125,1.03759765625,-0.37353515625,33.2171630859375,-165.498046875
1758179750.593574,-0.5224609375,-0.0087890625,0.84521484375,0.79345703125,1.0986328125,1.03759765625,-0.362548828125,33.22265625,-165.4925537109375
1758179750.6033204,-0.52294921875,-0.0009765625,0.86669921875,-0.42724609375,1.15966796875,1.3427734375,-0.3515625,33.233642578125,-165.4815673828125
1758179750.6134167,-0.52294921875,-0.0009765625,0.86669921875,-0.42724609375,1.15966796875,1.3427734375,-0.3515625,33.2391357421875,-165.4705810546875
1758179750.6233978,-0.52001953125,-0.0009765625,0.85009765625,-0.244140625,1.220703125,1.5869140625,-0.340576171875,33.2501220703125,-165.4541015625
1758179750.6333754,-0.52001953125,-0.0009765625,0.85009765625,-0.244140625,1.220703125,1.5869140625,-0.3350830078125,33.255615234375,-165.4376220703125
1758179750.6433501,-0.52197265625,-0.01171875,0.85205078125,1.0986328125,1.0986328125,1.8310546875,-0.318603515625,33.2611083984375,-165.421142578125
1758179750.653508,-0.52197265625,-0.01171875,0.85205078125,1.0986328125,1.0986328125,1.8310546875,-0.296630859375,33.2666015625,-165.4046630859375
1758179750.6633263,-0.52294921875,-0.0126953125,0.84912109375,0.0,0.9765625,2.25830078125,-0.2801513671875,33.2666015625,-165.38818359375
1758179750.6734173,-0.52294921875,-0.0126953125,0.84912109375,0.0,0.9765625,2.25830078125,-0.2691650390625,33.2720947265625,-165.3662109375
1758179750.683349,-0.5234375,-0.0009765625,0.853515625,-0.8544921875,0.79345703125,2.50244140625,-0.2581787109375,33.2720947265625,-165.3387451171875
1758179750.693999,-0.5234375,-0.0009765625,0.853515625,-0.8544921875,0.79345703125,2.50244140625,-0.252685546875,33.2720947265625,-165.3167724609375
1758179750.7034054,-0.52734375,0.0029296875,0.85107421875,-2.13623046875,0.67138671875,2.74658203125,-0.2471923828125,33.2720947265625,-165.289306640625
1758179750.7137754,-0.52734375,0.0029296875,0.85107421875,-2.13623046875,0.67138671875,2.74658203125,-0.252685546875,33.2720947265625,-165.2618408203125
1758179750.7234445,-0.52001953125,0.00830078125,0.84619140625,-3.60107421875,0.244140625,2.685546875,-0.263671875,33.2666015625,-165.234375
1758179750.7334487,-0.52001953125,0.00830078125,0.84619140625,-3.60107421875,0.244140625,2.685546875,-0.28564453125,33.2611083984375,-165.21240234375
1758179750.743458,-0.52783203125,-0.00244140625,0.85693359375,-2.5634765625,0.0,2.62451171875,-0.296630859375,33.255615234375,-165.1849365234375
1758179750.75357,-0.52783203125,-0.00244140625,0.85693359375,-2.5634765625,0.0,2.62451171875,-0.3021240234375,33.24462890625,-165.157470703125
1758179750.7634406,-0.53173828125,-0.00732421875,0.8408203125,-1.0986328125,-0.244140625,2.38037109375,-0.3021240234375,33.2391357421875,-165.1300048828125
1758179750.7735753,-0.53173828125,-0.00732421875,0.8408203125,-1.0986328125,-0.244140625,2.38037109375,-0.296630859375,33.2281494140625,-165.1080322265625
1758179750.7834024,-0.5302734375,-0.0068359375,0.845703125,-1.03759765625,-0.42724609375,2.13623046875,-0.296630859375,33.2171630859375,-165.0860595703125
1758179750.7942083,-0.5302734375,-0.0068359375,0.845703125,-1.03759765625,-0.42724609375,2.13623046875,-0.2911376953125,33.2061767578125,-165.069580078125
1758179750.8034558,-0.52685546875,0.00390625,0.84375,-1.46484375,-0.79345703125,1.77001953125,-0.2911376953125,33.189697265625,-165.047607421875
1758179750.8140113,-0.52685546875,0.00390625,0.84375,-1.46484375,-0.79345703125,1.77001953125,-0.2911376953125,33.1732177734375,-165.0311279296875
1758179750.8235462,-0.52001953125,0.01318359375,0.845703125,-0.91552734375,-1.03759765625,1.3427734375,-0.296630859375,33.15673828125,-165.0201416015625
1758179750.8336644,-0.52001953125,0.01318359375,0.845703125,-0.91552734375,-1.03759765625,1.3427734375,-0.2911376953125,33.1402587890625,-165.0091552734375
1758179750.843596,-0.52978515625,0.00439453125,0.85546875,-1.15966796875,-1.15966796875,1.0986328125,-0.2911376953125,33.123779296875,-164.9981689453125
1758179750.853651,-0.52978515625,0.00439453125,0.85546875,-1.15966796875,-1.15966796875,1.0986328125,-0.296630859375,33.101806640625,-164.9871826171875
1758179750.8635778,-0.52685546875,-0.00390625,0.83447265625,0.6103515625,-1.46484375,0.8544921875,-0.2911376953125,33.079833984375,-164.981689453125
1758179750.8736627,-0.52685546875,-0.00390625,0.83447265625,0.6103515625,-1.46484375,0.8544921875,-0.274658203125,33.0633544921875,-164.9761962890625
1758179750.8835075,-0.5283203125,-0.01318359375,0.8408203125,2.38037109375,-1.953125,0.54931640625,-0.252685546875,33.035888671875,-164.970703125
1758179750.894004,-0.5283203125,-0.01318359375,0.8408203125,2.38037109375,-1.953125,0.54931640625,-0.2252197265625,33.013916015625,-164.9652099609375
1758179750.903588,-0.53076171875,-0.00048828125,0.85009765625,2.99072265625,-2.13623046875,0.3662109375,-0.19775390625,32.9864501953125,-164.9652099609375
1758179750.9135785,-0.53076171875,-0.00048828125,0.85009765625,2.99072265625,-2.13623046875,0.3662109375,-0.164794921875,32.958984375,-164.9652099609375
1758179750.9239976,-0.52392578125,0.00927734375,0.85791015625,-0.79345703125,-2.197265625,0.67138671875,-0.1483154296875,32.9315185546875,-164.9652099609375
1758179750.9336066,-0.52392578125,0.00927734375,0.85791015625,-0.79345703125,-2.197265625,0.67138671875,-0.15380859375,32.904052734375,-164.959716796875
1758179750.9436343,-0.52978515625,0.01171875,0.84912109375,-3.35693359375,-2.25830078125,0.9765625,-0.164794921875,32.87109375,-164.9542236328125
1758179750.9537582,-0.52978515625,0.01171875,0.84912109375,-3.35693359375,-2.25830078125,0.9765625,-0.1922607421875,32.8436279296875,-164.9432373046875
1758179750.9636748,-0.53369140625,-0.00439453125,0.84619140625,-1.15966796875,-2.50244140625,0.732421875,-0.208740234375,32.816162109375,-164.937744140625
1758179750.9737198,-0.53369140625,-0.00439453125,0.84619140625,-1.15966796875,-2.50244140625,0.732421875,-0.2142333984375,32.783203125,-164.9322509765625
1758179750.9836144,-0.5361328125,-0.01416015625,0.8515625,1.0986328125,-2.44140625,0.48828125,-0.208740234375,32.7557373046875,-164.9267578125
1758179750.9942548,-0.5361328125,-0.01416015625,0.8515625,1.0986328125,-2.44140625,0.48828125,-0.1922607421875,32.728271484375,-164.9212646484375
1758179751.0046835,-0.53955078125,-0.005859375,0.845703125,1.953125,-2.3193359375,0.42724609375,-0.17578125,32.7008056640625,-164.9212646484375
1758179751.0146277,-0.53955078125,-0.005859375,0.845703125,1.953125,-2.3193359375,0.42724609375,-0.1483154296875,32.67333984375,-164.9212646484375
1758179751.0254948,-0.54931640625,0.00537109375,0.8369140625,-0.244140625,-2.13623046875,0.48828125,-0.1373291015625,32.6458740234375,-164.915771484375
1758179751.0337136,-0.54931640625,0.00537109375,0.8369140625,-0.244140625,-2.13623046875,0.48828125,-0.1373291015625,32.6239013671875,-164.915771484375
1758179751.0438385,-0.5634765625,0.01708984375,0.82421875,-2.99072265625,-2.01416015625,0.79345703125,-0.1483154296875,32.6019287109375,-164.90478515625
1758179751.0539749,-0.5634765625,0.01708984375,0.82421875,-2.99072265625,-2.01416015625,0.79345703125,-0.17578125,32.5799560546875,-164.8992919921875
1758179751.0637178,-0.56787109375,0.0107421875,0.81640625,-4.33349609375,-2.01416015625,1.03759765625,-0.2032470703125,32.5634765625,-164.8883056640625
1758179751.0738852,-0.56787109375,0.0107421875,0.81640625,-4.33349609375,-2.01416015625,1.03759765625,-0.2362060546875,32.54150390625,-164.871826171875
1758179751.0837853,-0.56982421875,-0.001953125,0.830078125,-4.2724609375,-1.8310546875,0.9765625,-0.2691650390625,32.530517578125,-164.86083984375
1758179751.094136,-0.56982421875,-0.001953125,0.830078125,-4.2724609375,-1.8310546875,0.9765625,-0.3021240234375,32.5140380859375,-164.849853515625
1758179751.1038072,-0.56591796875,-0.0068359375,0.8212890625,-2.01416015625,-1.52587890625,0.8544921875,-0.3240966796875,32.5030517578125,-164.8333740234375
1758179751.1139627,-0.56591796875,-0.0068359375,0.8212890625,-2.01416015625,-1.52587890625,0.8544921875,-0.3350830078125,32.4920654296875,-164.8223876953125
1758179751.1244063,-0.576171875,-0.01318359375,0.82421875,-0.9765625,-1.46484375,0.42724609375,-0.3460693359375,32.486572265625,-164.8114013671875
1758179751.13385,-0.576171875,-0.01318359375,0.82421875,-0.9765625,-1.46484375,0.42724609375,-0.3515625,32.4755859375,-164.805908203125
1758179751.1438608,-0.576171875,0.00048828125,0.81298828125,-1.3427734375,-1.46484375,0.06103515625,-0.3570556640625,32.4700927734375,-164.8004150390625
1758179751.1539617,-0.576171875,0.00048828125,0.81298828125,-1.3427734375,-1.46484375,0.06103515625,-0.3680419921875,32.464599609375,-164.8004150390625
1758179751.1638916,-0.572265625,0.001953125,0.8115234375,-0.79345703125,-1.64794921875,-0.1220703125,-0.3790283203125,32.4591064453125,-164.794921875
1758179751.1738923,-0.572265625,0.001953125,0.8115234375,-0.79345703125,-1.64794921875,-0.1220703125,-0.384521484375,32.45361328125,-164.794921875
1758179751.1839604,-0.56689453125,0.001953125,0.83544921875,-1.3427734375,-1.52587890625,-0.3662109375,-0.3955078125,32.4481201171875,-164.794921875
1758179751.1941276,-0.56689453125,0.001953125,0.83544921875,-1.3427734375,-1.52587890625,-0.3662109375,-0.4119873046875,32.4481201171875,-164.794921875
1758179751.203889,-0.55322265625,-0.00146484375,0.82568359375,-0.732421875,-1.52587890625,-0.8544921875,-0.4229736328125,32.442626953125,-164.8004150390625
1758179751.2139728,-0.55322265625,-0.00146484375,0.82568359375,-0.732421875,-1.52587890625,-0.8544921875,-0.4339599609375,32.4371337890625,-164.805908203125
1758179751.2243674,-0.5419921875,-0.00439453125,0.8359375,1.77001953125,-1.708984375,-1.220703125,-0.428466796875,32.431640625,-164.81689453125
1758179751.2340002,-0.5419921875,-0.00439453125,0.8359375,1.77001953125,-1.708984375,-1.220703125,-0.41748046875,32.4261474609375,-164.827880859375
1758179751.244157,-0.5390625,-0.00927734375,0.8486328125,1.46484375,-1.5869140625,-1.40380859375,-0.406494140625,32.4151611328125,-164.8388671875
1758179751.2540731,-0.5390625,-0.00927734375,0.8486328125,1.46484375,-1.5869140625,-1.40380859375,-0.4010009765625,32.40966796875,-164.8553466796875
1758179751.2641218,-0.5283203125,0.0009765625,0.84521484375,0.0,-1.52587890625,-1.52587890625,-0.4010009765625,32.398681640625,-164.8663330078125
1758179751.274087,-0.5283203125,0.0009765625,0.84521484375,0.0,-1.52587890625,-1.52587890625,-0.4119873046875,32.3931884765625,-164.8828125
1758179751.2840917,-0.5263671875,0.001953125,0.85693359375,1.89208984375,-1.28173828125,-1.708984375,-0.4119873046875,32.3822021484375,-164.8992919921875
1758179751.2943587,-0.5263671875,0.001953125,0.85693359375,1.89208984375,-1.28173828125,-1.708984375,-0.4010009765625,32.376708984375,-164.915771484375
1758179751.3045495,-0.51806640625,-0.009765625,0.85595703125,1.3427734375,-1.0986328125,-1.5869140625,-0.3900146484375,32.36572265625,-164.937744140625
1758179751.314094,-0.51806640625,-0.009765625,0.85595703125,1.3427734375,-1.0986328125,-1.5869140625,-0.384521484375,32.3602294921875,-164.9542236328125
1758179751.324496,-0.52001953125,-0.0078125,0.85498046875,0.54931640625,-0.91552734375,-1.5869140625,-0.3900146484375,32.3492431640625,-164.970703125
1758179751.33404,-0.52001953125,-0.0078125,0.85498046875,0.54931640625,-0.91552734375,-1.5869140625,-0.3955078125,32.34375,-164.9871826171875
1758179751.3440354,-0.52392578125,-0.01025390625,0.85009765625,1.28173828125,-0.8544921875,-1.5869140625,-0.3900146484375,32.332763671875,-165.0091552734375
1758179751.354215,-0.52392578125,-0.01025390625,0.85009765625,1.28173828125,-0.8544921875,-1.5869140625,-0.384521484375,32.3272705078125,-165.025634765625
1758179751.364084,-0.53076171875,-0.00537109375,0.84765625,1.03759765625,-0.8544921875,-1.52587890625,-0.384521484375,32.3162841796875,-165.047607421875
1758179751.3741431,-0.53076171875,-0.00537109375,0.84765625,1.03759765625,-0.8544921875,-1.52587890625,-0.384521484375,32.310791015625,-165.0640869140625
1758179751.3840482,-0.53076171875,0.00146484375,0.84912109375,2.62451171875,-0.8544921875,-1.5869140625,-0.3680419921875,32.2998046875,-165.08056640625
1758179751.394541,-0.53076171875,0.00146484375,0.84912109375,2.62451171875,-0.8544921875,-1.5869140625,-0.3515625,32.288818359375,-165.1025390625
1758179751.4041452,-0.53271484375,-0.01025390625,0.84228515625,3.2958984375,-0.91552734375,-1.5869140625,-0.32958984375,32.2833251953125,-165.1190185546875
1758179751.4146557,-0.53271484375,-0.01025390625,0.84228515625,3.2958984375,-0.91552734375,-1.5869140625,-0.3076171875,32.2723388671875,-165.1409912109375
1758179751.4246123,-0.5361328125,0.00048828125,0.84375,1.64794921875,-1.03759765625,-1.46484375,-0.296630859375,32.2613525390625,-165.157470703125
1758179751.434171,-0.5361328125,0.00048828125,0.84375,1.64794921875,-1.03759765625,-1.46484375,-0.2911376953125,32.2503662109375,-165.1739501953125
1758179751.4442015,-0.53857421875,0.00048828125,0.837890625,0.18310546875,-1.0986328125,-1.3427734375,-0.296630859375,32.2393798828125,-165.1904296875
1758179751.454398,-0.53857421875,0.00048828125,0.837890625,0.18310546875,-1.0986328125,-1.3427734375,-0.3021240234375,32.2283935546875,-165.2069091796875
1758179751.4641852,-0.5322265625,0.0009765625,0.8447265625,1.46484375,-1.15966796875,-1.5869140625,-0.296630859375,32.2174072265625,-165.2288818359375
1758179751.474223,-0.5322265625,0.0009765625,0.8447265625,1.46484375,-1.15966796875,-1.5869140625,-0.2911376953125,32.2064208984375,-165.245361328125
1758179751.4843028,-0.533203125,-0.013671875,0.84912109375,2.86865234375,-1.220703125,-1.5869140625,-0.274658203125,32.1954345703125,-165.267333984375
1758179751.4945443,-0.533203125,-0.013671875,0.84912109375,2.86865234375,-1.220703125,-1.5869140625,-0.252685546875,32.1844482421875,-165.2838134765625
1758179751.5042567,-0.52734375,-0.017578125,0.84765625,2.99072265625,-1.3427734375,-1.8310546875,-0.2362060546875,32.1734619140625,-165.3057861328125
1758179751.5143502,-0.52734375,-0.017578125,0.84765625,2.99072265625,-1.3427734375,-1.8310546875,-0.2197265625,32.156982421875,-165.3277587890625
1758179751.5248337,-0.53564453125,-0.00634765625,0.84521484375,3.90625,-1.28173828125,-1.953125,-0.1922607421875,32.14599609375,-165.355224609375
1758179751.534269,-0.53564453125,-0.00634765625,0.84521484375,3.90625,-1.28173828125,-1.953125,-0.1702880859375,32.135009765625,-165.377197265625
1758179751.5443757,-0.53466796875,0.0048828125,0.845703125,5.18798828125,-1.3427734375,-2.01416015625,-0.1318359375,32.1240234375,-165.4046630859375
1758179751.55442,-0.53466796875,0.0048828125,0.845703125,5.18798828125,-1.3427734375,-2.01416015625,-0.0933837890625,32.1075439453125,-165.4266357421875
1758179751.564362,-0.5390625,0.00439453125,0.84521484375,4.94384765625,-1.28173828125,-2.01416015625,-0.0604248046875,32.0965576171875,-165.4541015625
1758179751.5743947,-0.5390625,0.00439453125,0.84521484375,4.94384765625,-1.28173828125,-2.01416015625,-0.02197265625,32.0855712890625,-165.47607421875
1758179751.584265,-0.544921875,0.0009765625,0.8369140625,4.2724609375,-1.28173828125,-1.89208984375,0.0,32.0745849609375,-165.498046875
1758179751.5947843,-0.544921875,0.0009765625,0.8369140625,4.2724609375,-1.28173828125,-1.89208984375,0.032958984375,32.0635986328125,-165.52001953125
1758179751.6043653,-0.546875,0.00341796875,0.8349609375,2.9296875,-1.28173828125,-1.8310546875,0.0494384765625,32.0526123046875,-165.5419921875
1758179751.6145313,-0.546875,0.00341796875,0.8349609375,2.9296875,-1.28173828125,-1.8310546875,0.06591796875,32.047119140625,-165.56396484375
1758179751.6247435,-0.55029296875,0.0107421875,0.8349609375,2.5634765625,-1.28173828125,-1.89208984375,0.076904296875,32.0361328125,-165.5859375
1758179751.634336,-0.55029296875,0.0107421875,0.8349609375,2.5634765625,-1.28173828125,-1.89208984375,0.0933837890625,32.025146484375,-165.60791015625
1758179751.6443365,-0.53857421875,0.00537109375,0.83642578125,2.197265625,-1.40380859375,-1.8310546875,0.1043701171875,32.0196533203125,-165.6298828125
1758179751.6546352,-0.53857421875,0.00537109375,0.83642578125,2.197265625,-1.40380859375,-1.8310546875,0.1153564453125,32.0086669921875,-165.65185546875
1758179751.664389,-0.54345703125,-0.00244140625,0.8466796875,2.44140625,-1.40380859375,-1.77001953125,0.1263427734375,31.9976806640625,-165.673828125
1758179751.6744459,-0.54345703125,-0.00244140625,0.8466796875,2.44140625,-1.40380859375,-1.77001953125,0.1373291015625,31.9866943359375,-165.69580078125
1758179751.6843538,-0.54443359375,-0.00146484375,0.84033203125,2.99072265625,-1.220703125,-1.708984375,0.1593017578125,31.981201171875,-165.7122802734375
1758179751.694805,-0.54443359375,-0.00146484375,0.84033203125,2.99072265625,-1.220703125,-1.708984375,0.17578125,31.9757080078125,-165.7342529296875
1758179751.7044125,-0.54638671875,0.0,0.83447265625,3.11279296875,-1.15966796875,-1.64794921875,0.19775390625,31.9647216796875,-165.7562255859375
1758179751.7144306,-0.54638671875,0.0,0.83447265625,3.11279296875,-1.15966796875,-1.64794921875,0.2142333984375,31.959228515625,-165.772705078125
1758179751.7249203,-0.541015625,0.01025390625,0.84375,1.3427734375,-0.9765625,-1.46484375,0.2197265625,31.9537353515625,-165.7891845703125
1758179751.7344444,-0.541015625,0.01025390625,0.84375,1.3427734375,-0.9765625,-1.46484375,0.2252197265625,31.9537353515625,-165.8111572265625
1758179751.744471,-0.5380859375,0.01220703125,0.845703125,1.0986328125,-0.8544921875,-1.40380859375,0.2252197265625,31.9482421875,-165.82763671875
1758179751.7549615,-0.5380859375,0.01220703125,0.845703125,1.0986328125,-0.8544921875,-1.40380859375,0.230712890625,31.9427490234375,-165.8441162109375
1758179751.7644472,-0.53173828125,0.00439453125,0.84423828125,1.28173828125,-0.79345703125,-1.220703125,0.2362060546875,31.9427490234375,-165.8551025390625
1758179751.7745066,-0.53173828125,0.00439453125,0.84423828125,1.28173828125,-0.79345703125,-1.220703125,0.2362060546875,31.937255859375,-165.87158203125
1758179751.7844653,-0.53271484375,0.00146484375,0.84765625,0.48828125,-0.79345703125,-1.15966796875,0.2362060546875,31.9317626953125,-165.882568359375
1758179751.7947893,-0.53271484375,0.00146484375,0.84765625,0.48828125,-0.79345703125,-1.15966796875,0.2362060546875,31.9317626953125,-165.8990478515625
1758179751.8044975,-0.53271484375,0.00146484375,0.84765625,0.54931640625,-0.67138671875,-1.15966796875,0.230712890625,31.92626953125,-165.9100341796875
1758179751.8145337,-0.53125,0.0029296875,0.84619140625,0.54931640625,-0.67138671875,-1.15966796875,0.230712890625,31.92626953125,-165.926513671875
1758179751.8249993,-0.5263671875,0.00927734375,0.85302734375,0.8544921875,-0.48828125,-1.0986328125,0.230712890625,31.9207763671875,-165.9375
1758179751.834575,-0.5263671875,0.00927734375,0.85302734375,0.8544921875,-0.48828125,-1.0986328125,0.2362060546875,31.9207763671875,-165.9539794921875
1758179751.8445017,-0.51708984375,0.00927734375,0.85498046875,1.3427734375,-0.48828125,-1.03759765625,0.24169921875,31.915283203125,-165.9649658203125
1758179751.8547697,-0.51708984375,0.00927734375,0.85498046875,1.3427734375,-0.48828125,-1.03759765625,0.252685546875,31.915283203125,-165.9814453125
1758179751.8645124,-0.5126953125,0.0009765625,0.85205078125,1.3427734375,-0.6103515625,-0.9765625,0.2581787109375,31.9097900390625,-165.992431640625
1758179751.8745701,-0.5126953125,0.0009765625,0.85205078125,1.3427734375,-0.6103515625,-0.9765625,0.263671875,31.904296875,-166.00341796875
1758179751.8844914,-0.5146484375,0.00537109375,0.8662109375,-0.244140625,-0.6103515625,-0.8544921875,0.2581787109375,31.893310546875,-166.014404296875
1758179751.8949904,-0.5146484375,0.00537109375,0.8662109375,-0.244140625,-0.6103515625,-0.8544921875,0.252685546875,31.8878173828125,-166.025390625
1758179751.9045446,-0.50439453125,0.00390625,0.85498046875,0.48828125,-0.6103515625,-0.67138671875,0.252685546875,31.88232421875,-166.036376953125
1758179751.914756,-0.50439453125,0.00390625,0.85498046875,0.48828125,-0.6103515625,-0.67138671875,0.252685546875,31.871337890625,-166.04736328125
1758179751.9250305,-0.50732421875,0.00341796875,0.86279296875,0.91552734375,-0.6103515625,-0.6103515625,0.2581787109375,31.8658447265625,-166.058349609375
1758179751.934585,-0.50732421875,0.00341796875,0.86279296875,0.91552734375,-0.6103515625,-0.6103515625,0.263671875,31.8548583984375,-166.0638427734375
1758179751.9445906,-0.50732421875,0.00439453125,0.875,0.06103515625,-0.48828125,-0.42724609375,0.263671875,31.8438720703125,-166.0748291015625
1758179751.954834,-0.50732421875,0.00439453125,0.875,0.06103515625,-0.48828125,-0.42724609375,0.2581787109375,31.83837890625,-166.080322265625
1758179751.964821,-0.50927734375,0.00341796875,0.853515625,0.18310546875,-0.3662109375,-0.244140625,0.2581787109375,31.827392578125,-166.09130859375
1758179751.9746923,-0.50927734375,0.00341796875,0.853515625,0.18310546875,-0.3662109375,-0.244140625,0.263671875,31.8218994140625,-166.0968017578125
1758179751.9846003,-0.5107421875,0.00341796875,0.85595703125,-1.46484375,-0.54931640625,0.0,0.2471923828125,31.8109130859375,-166.0968017578125
1758179751.9950352,-0.5107421875,0.00341796875,0.85595703125,-1.46484375,-0.54931640625,0.0,0.230712890625,31.7999267578125,-166.102294921875
1758179752.0046837,-0.5146484375,0.00927734375,0.86083984375,-3.90625,-0.67138671875,0.18310546875,0.1922607421875,31.7889404296875,-166.102294921875
1758179752.0147424,-0.5146484375,0.00927734375,0.86083984375,-3.90625,-0.67138671875,0.18310546875,0.1593017578125,31.7779541015625,-166.102294921875
1758179752.0250936,-0.50927734375,0.0087890625,0.853515625,-2.99072265625,-0.91552734375,0.0,0.1263427734375,31.761474609375,-166.1077880859375
1758179752.0347378,-0.50927734375,0.0087890625,0.853515625,-2.99072265625,-0.91552734375,0.0,0.098876953125,31.7449951171875,-166.1077880859375
1758179752.0449016,-0.50927734375,0.00146484375,0.859375,-1.03759765625,-1.03759765625,-0.1220703125,0.0933837890625,31.7340087890625,-166.11328125
1758179752.0548239,-0.50927734375,0.00146484375,0.859375,-1.03759765625,-1.03759765625,-0.1220703125,0.0823974609375,31.717529296875,-166.1187744140625
1758179752.064833,-0.50341796875,-0.00048828125,0.85791015625,-0.54931640625,-1.3427734375,-0.3662109375,0.076904296875,31.695556640625,-166.124267578125
1758179752.074735,-0.50341796875,-0.00048828125,0.85791015625,-0.54931640625,-1.3427734375,-0.3662109375,0.06591796875,31.6790771484375,-166.1297607421875
1758179752.084764,-0.50244140625,0.001953125,0.8623046875,0.6103515625,-1.64794921875,-0.48828125,0.0714111328125,31.6571044921875,-166.1407470703125
1758179752.0954788,-0.50244140625,0.001953125,0.8623046875,0.6103515625,-1.64794921875,-0.48828125,0.076904296875,31.6351318359375,-166.1517333984375
1758179752.1052516,-0.5048828125,0.00439453125,0.859375,0.48828125,-1.77001953125,-0.48828125,0.076904296875,31.6131591796875,-166.1572265625
1758179752.1147425,-0.5048828125,0.00439453125,0.859375,0.48828125,-1.77001953125,-0.48828125,0.0823974609375,31.585693359375,-166.168212890625
1758179752.1253338,-0.5107421875,0.0,0.8642578125,0.54931640625,-1.8310546875,-0.3662109375,0.087890625,31.563720703125,-166.1737060546875
1758179752.1347938,-0.5107421875,0.0,0.8642578125,0.54931640625,-1.8310546875,-0.3662109375,0.087890625,31.541748046875,-166.17919921875
1758179752.1449852,-0.51806640625,-0.005859375,0.85595703125,1.89208984375,-1.64794921875,-0.06103515625,0.10986328125,31.519775390625,-166.1846923828125
1758179752.1551979,-0.51806640625,-0.005859375,0.85595703125,1.89208984375,-1.64794921875,-0.06103515625,0.1263427734375,31.497802734375,-166.190185546875
1758179752.165052,-0.52099609375,-0.00341796875,0.849609375,0.3662109375,-1.52587890625,0.42724609375,0.1318359375,31.475830078125,-166.1846923828125
1758179752.1748774,-0.52099609375,-0.00341796875,0.849609375,0.3662109375,-1.52587890625,0.42724609375,0.1373291015625,31.4593505859375,-166.1846923828125
1758179752.1848228,-0.52490234375,0.001953125,0.849609375,-0.30517578125,-1.46484375,0.54931640625,0.1373291015625,31.44287109375,-166.17919921875
1758179752.1952393,-0.52490234375,0.001953125,0.849609375,-0.30517578125,-1.46484375,0.54931640625,0.1373291015625,31.4263916015625,-166.17919921875
1758179752.204995,-0.533203125,0.00537109375,0.84423828125,0.244140625,-1.46484375,0.54931640625,0.142822265625,31.409912109375,-166.1737060546875
1758179752.2149632,-0.533203125,0.00537109375,0.84423828125,0.244140625,-1.46484375,0.54931640625,0.1483154296875,31.3934326171875,-166.168212890625
1758179752.225244,-0.52978515625,0.00244140625,0.83837890625,1.28173828125,-1.5869140625,0.54931640625,0.164794921875,31.376953125,-166.168212890625
1758179752.2348785,-0.52978515625,0.00244140625,0.83837890625,1.28173828125,-1.5869140625,0.54931640625,0.1812744140625,31.3604736328125,-166.1627197265625
1758179752.2449718,-0.5322265625,0.0029296875,0.853515625,0.91552734375,-1.46484375,0.42724609375,0.1922607421875,31.3494873046875,-166.1572265625
1758179752.2551696,-0.5322265625,0.0029296875,0.853515625,0.91552734375,-1.46484375,0.42724609375,0.2032470703125,31.3330078125,-166.1572265625
1758179752.2651002,-0.5341796875,0.00732421875,0.849609375,0.91552734375,-1.28173828125,0.30517578125,0.2142333984375,31.322021484375,-166.1517333984375
1758179752.2749238,-0.5341796875,0.00732421875,0.849609375,0.91552734375,-1.28173828125,0.30517578125,0.2252197265625,31.31103515625,-166.1517333984375
1758179752.2849255,-0.5380859375,0.00830078125,0.83984375,1.28173828125,-1.220703125,0.06103515625,0.2362060546875,31.300048828125,-166.1517333984375
1758179752.2951956,-0.5380859375,0.00830078125,0.83984375,1.28173828125,-1.220703125,0.06103515625,0.252685546875,31.2945556640625,-166.1517333984375
1758179752.3049498,-0.5361328125,0.0068359375,0.837890625,1.89208984375,-1.28173828125,0.0,0.2691650390625,31.2835693359375,-166.1517333984375
1758179752.315053,-0.5361328125,0.0068359375,0.837890625,1.89208984375,-1.28173828125,0.0,0.2911376953125,31.2725830078125,-166.1517333984375
1758179752.3254497,-0.5322265625,0.00830078125,0.8515625,1.28173828125,-1.15966796875,-0.1220703125,0.3021240234375,31.26708984375,-166.1572265625
1758179752.3350224,-0.5322265625,0.00830078125,0.8515625,1.28173828125,-1.15966796875,-0.1220703125,0.3131103515625,31.2615966796875,-166.1572265625
1758179752.3452454,-0.52490234375,0.00830078125,0.8515625,1.77001953125,-0.8544921875,-0.1220703125,0.32958984375,31.256103515625,-166.1572265625
1758179752.3553188,-0.52490234375,0.00830078125,0.8515625,1.77001953125,-0.8544921875,-0.1220703125,0.3460693359375,31.2506103515625,-166.1572265625
1758179752.3652618,-0.52197265625,0.00341796875,0.86083984375,1.708984375,-0.6103515625,-0.1220703125,0.362548828125,31.2506103515625,-166.1627197265625
1758179752.375062,-0.52001953125,0.00830078125,0.85302734375,1.89208984375,-0.3662109375,-0.244140625,0.3790283203125,31.2506103515625,-166.1627197265625
1758179752.3852856,-0.52001953125,0.00830078125,0.85302734375,1.89208984375,-0.3662109375,-0.244140625,0.4010009765625,31.2451171875,-166.168212890625
1758179752.3959627,-0.51953125,0.01220703125,0.84716796875,1.28173828125,-0.18310546875,-0.1220703125,0.4119873046875,31.2451171875,-166.168212890625
1758179752.405146,-0.51953125,0.01220703125,0.84716796875,1.28173828125,-0.18310546875,-0.1220703125,0.4229736328125,31.2506103515625,-166.1737060546875
1758179752.4151123,-0.51806640625,0.01123046875,0.8642578125,0.18310546875,0.06103515625,0.0,0.4339599609375,31.2506103515625,-166.1737060546875
1758179752.4256105,-0.51806640625,0.01123046875,0.8642578125,0.18310546875,0.06103515625,0.0,0.4339599609375,31.2506103515625,-166.1737060546875
1758179752.4350882,-0.5087890625,0.00634765625,0.85888671875,0.06103515625,0.18310546875,0.0,0.4339599609375,31.256103515625,-166.1737060546875
1758179752.4453878,-0.5087890625,0.00634765625,0.85888671875,0.06103515625,0.18310546875,0.0,0.439453125,31.2615966796875,-166.17919921875
1758179752.4554665,-0.5107421875,0.00439453125,0.859375,1.220703125,0.244140625,0.06103515625,0.4449462890625,31.2615966796875,-166.17919921875
1758179752.4653456,-0.5107421875,0.00439453125,0.859375,1.220703125,0.244140625,0.06103515625,0.4559326171875,31.26708984375,-166.17919921875
1758179752.47601,-0.517578125,0.005859375,0.8642578125,0.3662109375,0.42724609375,0.244140625,0.4669189453125,31.26708984375,-166.17919921875
1758179752.4864988,-0.517578125,0.005859375,0.8642578125,0.3662109375,0.42724609375,0.244140625,0.472412109375,31.2725830078125,-166.17919921875
1758179752.4957783,-0.5146484375,0.01416015625,0.84765625,-0.244140625,0.42724609375,0.42724609375,0.472412109375,31.278076171875,-166.17919921875
1758179752.5053256,-0.5146484375,0.01416015625,0.84765625,-0.244140625,0.42724609375,0.42724609375,0.472412109375,31.278076171875,-166.1737060546875
1758179752.515461,-0.521484375,0.0146484375,0.85595703125,-1.3427734375,0.1220703125,0.6103515625,0.472412109375,31.2835693359375,-166.168212890625
1758179752.525785,-0.521484375,0.0146484375,0.85595703125,-1.3427734375,0.1220703125,0.6103515625,0.46142578125,31.2835693359375,-166.1627197265625
1758179752.5352323,-0.5244140625,0.009765625,0.84912109375,-3.2958984375,0.0,0.79345703125,0.4449462890625,31.2835693359375,-166.1572265625
1758179752.5452838,-0.5244140625,0.009765625,0.84912109375,-3.2958984375,0.0,0.79345703125,0.41748046875,31.2835693359375,-166.146240234375
1758179752.56126,-0.51611328125,0.01513671875,0.84423828125,-2.50244140625,-0.244140625,0.8544921875,0.3955078125,31.2835693359375,-166.1407470703125
1758179752.5678825,-0.51611328125,0.01513671875,0.84423828125,-2.50244140625,-0.244140625,0.8544921875,0.37353515625,31.278076171875,-166.1297607421875
1758179752.5753393,-0.5283203125,0.0068359375,0.86328125,-1.5869140625,-0.244140625,0.54931640625,0.362548828125,31.278076171875,-166.1187744140625
1758179752.5853696,-0.5283203125,0.0068359375,0.86328125,-1.5869140625,-0.244140625,0.54931640625,0.3515625,31.278076171875,-166.11328125
1758179752.5981834,-0.52734375,0.00146484375,0.84130859375,-1.40380859375,-0.3662109375,0.30517578125,0.340576171875,31.2725830078125,-166.1077880859375
1758179752.605379,-0.52734375,0.00146484375,0.84130859375,-1.40380859375,-0.3662109375,0.30517578125,0.32958984375,31.2725830078125,-166.1077880859375
1758179752.6155884,-0.52734375,0.00244140625,0.84326171875,-0.06103515625,-0.6103515625,0.244140625,0.3240966796875,31.26708984375,-166.102294921875
1758179752.62842,-0.52734375,0.00244140625,0.84326171875,-0.06103515625,-0.6103515625,0.244140625,0.32958984375,31.2615966796875,-166.102294921875
1758179752.6355069,-0.52880859375,0.005859375,0.85205078125,-0.8544921875,-0.67138671875,0.1220703125,0.3240966796875,31.256103515625,-166.102294921875
1758179752.6454494,-0.52880859375,0.005859375,0.85205078125,-0.8544921875,-0.67138671875,0.1220703125,0.318603515625,31.256103515625,-166.102294921875
1758179752.6615782,-0.52587890625,0.01025390625,0.8466796875,-0.30517578125,-0.67138671875,0.0,0.3131103515625,31.2506103515625,-166.102294921875
1758179752.6678538,-0.52587890625,0.01025390625,0.8466796875,-0.30517578125,-0.67138671875,0.0,0.3131103515625,31.2451171875,-166.102294921875
1758179752.6753964,-0.51806640625,0.01953125,0.84912109375,0.79345703125,-0.54931640625,0.06103515625,0.3131103515625,31.2396240234375,-166.102294921875
1758179752.6853971,-0.51806640625,0.01953125,0.84912109375,0.79345703125,-0.54931640625,0.06103515625,0.3240966796875,31.2396240234375,-166.102294921875
1758179752.6981528,-0.52001953125,0.0068359375,0.86181640625,0.18310546875,-0.6103515625,-0.1220703125,0.32958984375,31.234130859375,-166.102294921875
1758179752.705474,-0.52001953125,0.0068359375,0.86181640625,0.18310546875,-0.6103515625,-0.1220703125,0.3350830078125,31.2286376953125,-166.102294921875
1758179752.715481,-0.51904296875,0.0078125,0.85302734375,-1.52587890625,-0.6103515625,-0.1220703125,0.32958984375,31.2286376953125,-166.1077880859375
1758179752.7279274,-0.51904296875,0.0078125,0.85302734375,-1.52587890625,-0.6103515625,-0.1220703125,0.3131103515625,31.22314453125,-166.1077880859375
